File: SEM/010422/CL15_B/reports/CL15_B Spectrum 1.txt
#FORMAT      : EMSA/MAS Spectral Data File
#VERSION     : 1.0
#TITLE       : Spectrum 1
#DATE        : 04-JAN-2022
#TIME        : 13:21
#OWNER       :
#NPOINTS     : 2048.0
#NCOLUMNS    : 1.0
#XUNITS      : keV
#YUNITS      : counts
#DATATYPE    : XY
#XPERCHAN    : 0.01
#OFFSET      : -0.2
#SIGNALTYPE  : EDS
#CHOFFSET    : 20.0
#LIVETIME    : 40.0
#REALTIME    : 41.943
#BEAMKV      : 20.0
#MAGCAM      : 500.0
#XTILTSTGE   : 0.0
#AZIMANGLE   : 0.0
#ELEVANGLE   : 35.0
#XPOSITION mm: -8.1984
#YPOSITION mm: 1.1637
#ZPOSITION mm: 10.0000
##OXINSTPT   : 4
##OXINSTSTROB: 43.49
##OXINSTNDET : 1
##OXINSTELEMS: 6,25,26,8,16,14,24
##OXINSTLABEL: 6, 0.277, C
##OXINSTLABEL: 25, 5.899, Mn
##OXINSTLABEL: 25, 6.490, Mn
##OXINSTLABEL: 25, 0.636, Mn
##OXINSTLABEL: 25, 0.556, Mn
##OXINSTLABEL: 26, 6.404, Fe
##OXINSTLABEL: 26, 7.058, Fe
##OXINSTLABEL: 26, 0.703, Fe
##OXINSTLABEL: 26, 0.615, Fe
##OXINSTLABEL: 8, 0.525, O
##OXINSTLABEL: 16, 2.308, S
##OXINSTLABEL: 16, 2.464, S
##OXINSTLABEL: 14, 1.740, Si
##OXINSTLABEL: 24, 5.415, Cr
##OXINSTLABEL: 24, 5.947, Cr
##OXINSTLABEL: 24, 0.573, Cr
##OXINSTLABEL: 24, 0.500, Cr
#SPECTRUM    : Spectral Data Starts Here
-0.20000, 0.0
-0.18000, 0.0
-0.16000, 0.0
-0.14000, 0.0
-0.12000, 0.0
-0.10000, 0.0
-0.08000, 0.0
-0.06000, 0.0
-0.04000, 44.0
-0.02000, 341.0
0.00000, 1044.0
0.02000, 1700.0
0.04000, 1786.0
0.06000, 1005.0
0.08000, 293.0
0.10000, 122.0
0.12000, 108.0
0.14000, 104.0
0.16000, 98.0
0.18000, 122.0
0.20000, 164.0
0.22000, 213.0
0.24000, 460.0
0.26000, 906.0
0.28000, 1004.0
0.30000, 583.0
0.32000, 225.0
0.34000, 136.0
0.36000, 170.0
0.38000, 208.0
0.40000, 240.0
0.42000, 259.0
0.44000, 298.0
0.46000, 367.0
0.48000, 576.0
0.50000, 1025.0
0.52000, 1441.0
0.54000, 1334.0
0.56000, 1111.0
0.58000, 1520.0
0.60000, 2473.0
0.62000, 3067.0
0.64000, 2689.0
0.66000, 3004.0
0.68000, 5323.0
0.70000, 7630.0
0.72000, 6578.0
0.74000, 3434.0
0.76000, 1140.0
0.78000, 406.0
0.80000, 238.0
0.82000, 174.0
0.84000, 162.0
0.86000, 142.0
0.88000, 162.0
0.90000, 153.0
0.92000, 170.0
0.94000, 186.0
0.96000, 181.0
0.98000, 180.0
1.00000, 170.0
1.02000, 186.0
1.04000, 179.0
1.06000, 191.0
1.08000, 190.0
1.10000, 201.0
1.12000, 220.0
1.14000, 213.0
1.16000, 209.0
1.18000, 204.0
1.20000, 207.0
1.22000, 246.0
1.24000, 221.0
1.26000, 243.0
1.28000, 245.0
1.30000, 230.0
1.32000, 239.0
1.34000, 265.0
1.36000, 258.0
1.38000, 262.0
1.40000, 226.0
1.42000, 242.0
1.44000, 265.0
1.46000, 277.0
1.48000, 267.0
1.50000, 272.0
1.52000, 265.0
1.54000, 280.0
1.56000, 249.0
1.58000, 276.0
1.60000, 296.0
1.62000, 282.0
1.64000, 277.0
1.66000, 251.0
1.68000, 289.0
1.70000, 344.0
1.72000, 371.0
1.74000, 428.0
1.76000, 406.0
1.78000, 349.0
1.80000, 337.0
1.82000, 316.0
1.84000, 277.0
1.86000, 306.0
1.88000, 301.0
1.90000, 305.0
1.92000, 300.0
1.94000, 279.0
1.96000, 306.0
1.98000, 297.0
2.00000, 303.0
2.02000, 324.0
2.04000, 312.0
2.06000, 315.0
2.08000, 281.0
2.10000, 305.0
2.12000, 284.0
2.14000, 298.0
2.16000, 289.0
2.18000, 269.0
2.20000, 287.0
2.22000, 305.0
2.24000, 289.0
2.26000, 323.0
2.28000, 339.0
2.30000, 387.0
2.32000, 353.0
2.34000, 360.0
2.36000, 328.0
2.38000, 322.0
2.40000, 307.0
2.42000, 275.0
2.44000, 292.0
2.46000, 300.0
2.48000, 284.0
2.50000, 293.0
2.52000, 274.0
2.54000, 298.0
2.56000, 294.0
2.58000, 300.0
2.60000, 321.0
2.62000, 299.0
2.64000, 323.0
2.66000, 285.0
2.68000, 310.0
2.70000, 274.0
2.72000, 311.0
2.74000, 281.0
2.76000, 301.0
2.78000, 294.0
2.80000, 301.0
2.82000, 281.0
2.84000, 301.0
2.86000, 281.0
2.88000, 280.0
2.90000, 290.0
2.92000, 279.0
2.94000, 274.0
2.96000, 297.0
2.98000, 283.0
3.00000, 271.0
3.02000, 278.0
3.04000, 260.0
3.06000, 274.0
3.08000, 268.0
3.10000, 260.0
3.12000, 283.0
3.14000, 280.0
3.16000, 271.0
3.18000, 265.0
3.20000, 266.0
3.22000, 290.0
3.24000, 272.0
3.26000, 271.0
3.28000, 259.0
3.30000, 253.0
3.32000, 253.0
3.34000, 274.0
3.36000, 253.0
3.38000, 286.0
3.40000, 261.0
3.42000, 253.0
3.44000, 255.0
3.46000, 267.0
3.48000, 233.0
3.50000, 251.0
3.52000, 246.0
3.54000, 237.0
3.56000, 246.0
3.58000, 259.0
3.60000, 267.0
3.62000, 266.0
3.64000, 254.0
3.66000, 237.0
3.68000, 263.0
3.70000, 256.0
3.72000, 244.0
3.74000, 231.0
3.76000, 263.0
3.78000, 215.0
3.80000, 206.0
3.82000, 220.0
3.84000, 252.0
3.86000, 237.0
3.88000, 244.0
3.90000, 238.0
3.92000, 242.0
3.94000, 250.0
3.96000, 229.0
3.98000, 248.0
4.00000, 223.0
4.02000, 208.0
4.04000, 221.0
4.06000, 220.0
4.08000, 194.0
4.10000, 241.0
4.12000, 220.0
4.14000, 220.0
4.16000, 246.0
4.18000, 233.0
4.20000, 216.0
4.22000, 216.0
4.24000, 221.0
4.26000, 222.0
4.28000, 207.0
4.30000, 222.0
4.32000, 228.0
4.34000, 222.0
4.36000, 200.0
4.38000, 221.0
4.40000, 233.0
4.42000, 189.0
4.44000, 212.0
4.46000, 208.0
4.48000, 199.0
4.50000, 215.0
4.52000, 218.0
4.54000, 227.0
4.56000, 227.0
4.58000, 229.0
4.60000, 212.0
4.62000, 244.0
4.64000, 230.0
4.66000, 240.0
4.68000, 250.0
4.70000, 236.0
4.72000, 243.0
4.74000, 197.0
4.76000, 194.0
4.78000, 189.0
4.80000, 205.0
4.82000, 182.0
4.84000, 200.0
4.86000, 205.0
4.88000, 201.0
4.90000, 212.0
4.92000, 217.0
4.94000, 204.0
4.96000, 215.0
4.98000, 195.0
5.00000, 206.0
5.02000, 186.0
5.04000, 199.0
5.06000, 171.0
5.08000, 180.0
5.10000, 205.0
5.12000, 204.0
5.14000, 191.0
5.16000, 196.0
5.18000, 190.0
5.20000, 171.0
5.22000, 200.0
5.24000, 181.0
5.26000, 189.0
5.28000, 193.0
5.30000, 184.0
5.32000, 197.0
5.34000, 202.0
5.36000, 230.0
5.38000, 214.0
5.40000, 233.0
5.42000, 239.0
5.44000, 216.0
5.46000, 215.0
5.48000, 190.0
5.50000, 181.0
5.52000, 185.0
5.54000, 175.0
5.56000, 192.0
5.58000, 193.0
5.60000, 168.0
5.62000, 168.0
5.64000, 195.0
5.66000, 170.0
5.68000, 149.0
5.70000, 168.0
5.72000, 157.0
5.74000, 157.0
5.76000, 163.0
5.78000, 202.0
5.80000, 235.0
5.82000, 265.0
5.84000, 314.0
5.86000, 374.0
5.88000, 429.0
5.90000, 456.0
5.92000, 378.0
5.94000, 342.0
5.96000, 319.0
5.98000, 245.0
6.00000, 199.0
6.02000, 180.0
6.04000, 163.0
6.06000, 168.0
6.08000, 164.0
6.10000, 164.0
6.12000, 187.0
6.14000, 183.0
6.16000, 174.0
6.18000, 195.0
6.20000, 209.0
6.22000, 272.0
6.24000, 404.0
6.26000, 809.0
6.28000, 1533.0
6.30000, 2843.0
6.32000, 4965.0
6.34000, 7574.0
6.36000, 10522.0
6.38000, 12503.0
6.40000, 13323.0
6.42000, 12646.0
6.44000, 10407.0
6.46000, 7528.0
6.48000, 4926.0
6.50000, 2839.0
6.52000, 1511.0
6.54000, 762.0
6.56000, 387.0
6.58000, 255.0
6.60000, 200.0
6.62000, 168.0
6.64000, 142.0
6.66000, 147.0
6.68000, 164.0
6.70000, 151.0
6.72000, 125.0
6.74000, 154.0
6.76000, 144.0
6.78000, 149.0
6.80000, 145.0
6.82000, 149.0
6.84000, 181.0
6.86000, 165.0
6.88000, 221.0
6.90000, 232.0
6.92000, 295.0
6.94000, 417.0
6.96000, 630.0
6.98000, 876.0
7.00000, 1228.0
7.02000, 1571.0
7.04000, 1742.0
7.06000, 1737.0
7.08000, 1651.0
7.10000, 1436.0
7.12000, 1053.0
7.14000, 655.0
7.16000, 440.0
7.18000, 281.0
7.20000, 160.0
7.22000, 128.0
7.24000, 87.0
7.26000, 79.0
7.28000, 76.0
7.30000, 77.0
7.32000, 78.0
7.34000, 91.0
7.36000, 71.0
7.38000, 86.0
7.40000, 80.0
7.42000, 90.0
7.44000, 92.0
7.46000, 86.0
7.48000, 99.0
7.50000, 74.0
7.52000, 83.0
7.54000, 86.0
7.56000, 73.0
7.58000, 89.0
7.60000, 81.0
7.62000, 75.0
7.64000, 72.0
7.66000, 77.0
7.68000, 85.0
7.70000, 80.0
7.72000, 88.0
7.74000, 71.0
7.76000, 63.0
7.78000, 72.0
7.80000, 76.0
7.82000, 70.0
7.84000, 86.0
7.86000, 84.0
7.88000, 75.0
7.90000, 77.0
7.92000, 64.0
7.94000, 100.0
7.96000, 89.0
7.98000, 89.0
8.00000, 84.0
8.02000, 91.0
8.04000, 109.0
8.06000, 105.0
8.08000, 75.0
8.10000, 76.0
8.12000, 78.0
8.14000, 81.0
8.16000, 84.0
8.18000, 77.0
8.20000, 74.0
8.22000, 87.0
8.24000, 75.0
8.26000, 65.0
8.28000, 86.0
8.30000, 74.0
8.32000, 79.0
8.34000, 80.0
8.36000, 84.0
8.38000, 78.0
8.40000, 70.0
8.42000, 76.0
8.44000, 71.0
8.46000, 69.0
8.48000, 60.0
8.50000, 82.0
8.52000, 71.0
8.54000, 78.0
8.56000, 79.0
8.58000, 57.0
8.60000, 67.0
8.62000, 70.0
8.64000, 67.0
8.66000, 66.0
8.68000, 81.0
8.70000, 69.0
8.72000, 64.0
8.74000, 73.0
8.76000, 58.0
8.78000, 76.0
8.80000, 71.0
8.82000, 75.0
8.84000, 68.0
8.86000, 84.0
8.88000, 78.0
8.90000, 71.0
8.92000, 75.0
8.94000, 60.0
8.96000, 76.0
8.98000, 50.0
9.00000, 68.0
9.02000, 67.0
9.04000, 88.0
9.06000, 66.0
9.08000, 66.0
9.10000, 61.0
9.12000, 67.0
9.14000, 64.0
9.16000, 70.0
9.18000, 62.0
9.20000, 70.0
9.22000, 67.0
9.24000, 60.0
9.26000, 66.0
9.28000, 46.0
9.30000, 62.0
9.32000, 64.0
9.34000, 73.0
9.36000, 53.0
9.38000, 61.0
9.40000, 62.0
9.42000, 71.0
9.44000, 62.0
9.46000, 70.0
9.48000, 52.0
9.50000, 66.0
9.52000, 58.0
9.54000, 55.0
9.56000, 60.0
9.58000, 48.0
9.60000, 53.0
9.62000, 74.0
9.64000, 74.0
9.66000, 53.0
9.68000, 65.0
9.70000, 57.0
9.72000, 72.0
9.74000, 65.0
9.76000, 71.0
9.78000, 59.0
9.80000, 59.0
9.82000, 61.0
9.84000, 71.0
9.86000, 62.0
9.88000, 49.0
9.90000, 45.0
9.92000, 61.0
9.94000, 52.0
9.96000, 62.0
9.98000, 52.0
10.00000, 59.0
10.02000, 56.0
10.04000, 43.0
10.06000, 42.0
10.08000, 44.0
10.10000, 69.0
10.12000, 60.0
10.14000, 56.0
10.16000, 53.0
10.18000, 65.0
10.20000, 54.0
10.22000, 46.0
10.24000, 48.0
10.26000, 56.0
10.28000, 44.0
10.30000, 47.0
10.32000, 40.0
10.34000, 49.0
10.36000, 60.0
10.38000, 54.0
10.40000, 63.0
10.42000, 39.0
10.44000, 68.0
10.46000, 43.0
10.48000, 63.0
10.50000, 58.0
10.52000, 59.0
10.54000, 54.0
10.56000, 53.0
10.58000, 39.0
10.60000, 56.0
10.62000, 58.0
10.64000, 40.0
10.66000, 44.0
10.68000, 40.0
10.70000, 44.0
10.72000, 58.0
10.74000, 52.0
10.76000, 52.0
10.78000, 55.0
10.80000, 41.0
10.82000, 38.0
10.84000, 47.0
10.86000, 39.0
10.88000, 43.0
10.90000, 53.0
10.92000, 50.0
10.94000, 53.0
10.96000, 47.0
10.98000, 49.0
11.00000, 37.0
11.02000, 42.0
11.04000, 47.0
11.06000, 46.0
11.08000, 52.0
11.10000, 46.0
11.12000, 37.0
11.14000, 42.0
11.16000, 48.0
11.18000, 52.0
11.20000, 36.0
11.22000, 42.0
11.24000, 38.0
11.26000, 34.0
11.28000, 43.0
11.30000, 56.0
11.32000, 29.0
11.34000, 47.0
11.36000, 47.0
11.38000, 48.0
11.40000, 50.0
11.42000, 46.0
11.44000, 38.0
11.46000, 38.0
11.48000, 47.0
11.50000, 47.0
11.52000, 46.0
11.54000, 35.0
11.56000, 44.0
11.58000, 47.0
11.60000, 39.0
11.62000, 31.0
11.64000, 31.0
11.66000, 33.0
11.68000, 41.0
11.70000, 37.0
11.72000, 49.0
11.74000, 49.0
11.76000, 36.0
11.78000, 41.0
11.80000, 47.0
11.82000, 33.0
11.84000, 38.0
11.86000, 39.0
11.88000, 39.0
11.90000, 43.0
11.92000, 30.0
11.94000, 36.0
11.96000, 41.0
11.98000, 35.0
12.00000, 40.0
12.02000, 39.0
12.04000, 30.0
12.06000, 34.0
12.08000, 43.0
12.10000, 37.0
12.12000, 38.0
12.14000, 39.0
12.16000, 35.0
12.18000, 36.0
12.20000, 36.0
12.22000, 34.0
12.24000, 37.0
12.26000, 42.0
12.28000, 27.0
12.30000, 32.0
12.32000, 32.0
12.34000, 31.0
12.36000, 25.0
12.38000, 32.0
12.40000, 42.0
12.42000, 30.0
12.44000, 26.0
12.46000, 45.0
12.48000, 28.0
12.50000, 32.0
12.52000, 23.0
12.54000, 43.0
12.56000, 28.0
12.58000, 23.0
12.60000, 30.0
12.62000, 36.0
12.64000, 30.0
12.66000, 32.0
12.68000, 37.0
12.70000, 36.0
12.72000, 40.0
12.74000, 36.0
12.76000, 40.0
12.78000, 51.0
12.80000, 42.0
12.82000, 42.0
12.84000, 31.0
12.86000, 37.0
12.88000, 41.0
12.90000, 43.0
12.92000, 43.0
12.94000, 23.0
12.96000, 29.0
12.98000, 32.0
13.00000, 28.0
13.02000, 28.0
13.04000, 27.0
13.06000, 29.0
13.08000, 21.0
13.10000, 33.0
13.12000, 32.0
13.14000, 25.0
13.16000, 30.0
13.18000, 30.0
13.20000, 23.0
13.22000, 36.0
13.24000, 26.0
13.26000, 29.0
13.28000, 22.0
13.30000, 32.0
13.32000, 29.0
13.34000, 34.0
13.36000, 24.0
13.38000, 25.0
13.40000, 34.0
13.42000, 29.0
13.44000, 31.0
13.46000, 37.0
13.48000, 42.0
13.50000, 20.0
13.52000, 19.0
13.54000, 25.0
13.56000, 29.0
13.58000, 26.0
13.60000, 27.0
13.62000, 14.0
13.64000, 30.0
13.66000, 31.0
13.68000, 34.0
13.70000, 30.0
13.72000, 17.0
13.74000, 18.0
13.76000, 24.0
13.78000, 29.0
13.80000, 36.0
13.82000, 30.0
13.84000, 31.0
13.86000, 13.0
13.88000, 16.0
13.90000, 19.0
13.92000, 24.0
13.94000, 18.0
13.96000, 29.0
13.98000, 22.0
14.00000, 25.0
14.02000, 26.0
14.04000, 17.0
14.06000, 20.0
14.08000, 17.0
14.10000, 22.0
14.12000, 14.0
14.14000, 27.0
14.16000, 20.0
14.18000, 24.0
14.20000, 30.0
14.22000, 30.0
14.24000, 22.0
14.26000, 12.0
14.28000, 14.0
14.30000, 22.0
14.32000, 22.0
14.34000, 29.0
14.36000, 16.0
14.38000, 27.0
14.40000, 14.0
14.42000, 13.0
14.44000, 24.0
14.46000, 18.0
14.48000, 22.0
14.50000, 18.0
14.52000, 20.0
14.54000, 13.0
14.56000, 23.0
14.58000, 22.0
14.60000, 12.0
14.62000, 14.0
14.64000, 17.0
14.66000, 23.0
14.68000, 12.0
14.70000, 19.0
14.72000, 20.0
14.74000, 18.0
14.76000, 17.0
14.78000, 12.0
14.80000, 22.0
14.82000, 16.0
14.84000, 16.0
14.86000, 19.0
14.88000, 21.0
14.90000, 20.0
14.92000, 18.0
14.94000, 15.0
14.96000, 16.0
14.98000, 9.0
15.00000, 17.0
15.02000, 16.0
15.04000, 13.0
15.06000, 23.0
15.08000, 12.0
15.10000, 15.0
15.12000, 17.0
15.14000, 12.0
15.16000, 14.0
15.18000, 10.0
15.20000, 13.0
15.22000, 13.0
15.24000, 18.0
15.26000, 20.0
15.28000, 15.0
15.30000, 18.0
15.32000, 12.0
15.34000, 8.0
15.36000, 10.0
15.38000, 10.0
15.40000, 19.0
15.42000, 14.0
15.44000, 15.0
15.46000, 12.0
15.48000, 15.0
15.50000, 7.0
15.52000, 17.0
15.54000, 14.0
15.56000, 14.0
15.58000, 19.0
15.60000, 9.0
15.62000, 15.0
15.64000, 8.0
15.66000, 9.0
15.68000, 18.0
15.70000, 7.0
15.72000, 12.0
15.74000, 14.0
15.76000, 14.0
15.78000, 7.0
15.80000, 15.0
15.82000, 13.0
15.84000, 10.0
15.86000, 18.0
15.88000, 9.0
15.90000, 8.0
15.92000, 10.0
15.94000, 10.0
15.96000, 9.0
15.98000, 12.0
16.00000, 10.0
16.02000, 19.0
16.04000, 16.0
16.06000, 11.0
16.08000, 9.0
16.10000, 9.0
16.12000, 10.0
16.14000, 12.0
16.16000, 9.0
16.18000, 8.0
16.20000, 11.0
16.22000, 9.0
16.24000, 15.0
16.26000, 9.0
16.28000, 11.0
16.30000, 5.0
16.32000, 11.0
16.34000, 10.0
16.36000, 10.0
16.38000, 12.0
16.40000, 9.0
16.42000, 8.0
16.44000, 14.0
16.46000, 4.0
16.48000, 9.0
16.50000, 12.0
16.52000, 13.0
16.54000, 13.0
16.56000, 6.0
16.58000, 5.0
16.60000, 11.0
16.62000, 8.0
16.64000, 8.0
16.66000, 13.0
16.68000, 4.0
16.70000, 8.0
16.72000, 11.0
16.74000, 6.0
16.76000, 4.0
16.78000, 4.0
16.80000, 7.0
16.82000, 4.0
16.84000, 11.0
16.86000, 5.0
16.88000, 6.0
16.90000, 7.0
16.92000, 8.0
16.94000, 6.0
16.96000, 4.0
16.98000, 8.0
17.00000, 8.0
17.02000, 7.0
17.04000, 7.0
17.06000, 8.0
17.08000, 7.0
17.10000, 4.0
17.12000, 7.0
17.14000, 6.0
17.16000, 5.0
17.18000, 6.0
17.20000, 1.0
17.22000, 3.0
17.24000, 4.0
17.26000, 3.0
17.28000, 8.0
17.30000, 6.0
17.32000, 3.0
17.34000, 5.0
17.36000, 9.0
17.38000, 5.0
17.40000, 4.0
17.42000, 3.0
17.44000, 8.0
17.46000, 8.0
17.48000, 5.0
17.50000, 4.0
17.52000, 7.0
17.54000, 8.0
17.56000, 8.0
17.58000, 4.0
17.60000, 1.0
17.62000, 5.0
17.64000, 5.0
17.66000, 5.0
17.68000, 7.0
17.70000, 4.0
17.72000, 3.0
17.74000, 4.0
17.76000, 4.0
17.78000, 4.0
17.80000, 11.0
17.82000, 4.0
17.84000, 2.0
17.86000, 1.0
17.88000, 5.0
17.90000, 6.0
17.92000, 7.0
17.94000, 6.0
17.96000, 6.0
17.98000, 3.0
18.00000, 6.0
18.02000, 2.0
18.04000, 3.0
18.06000, 7.0
18.08000, 1.0
18.10000, 4.0
18.12000, 4.0
18.14000, 3.0
18.16000, 6.0
18.18000, 6.0
18.20000, 5.0
18.22000, 3.0
18.24000, 3.0
18.26000, 1.0
18.28000, 5.0
18.30000, 1.0
18.32000, 2.0
18.34000, 1.0
18.36000, 3.0
18.38000, 3.0
18.40000, 1.0
18.42000, 3.0
18.44000, 3.0
18.46000, 5.0
18.48000, 1.0
18.50000, 0.0
18.52000, 0.0
18.54000, 2.0
18.56000, 3.0
18.58000, 4.0
18.60000, 3.0
18.62000, 1.0
18.64000, 1.0
18.66000, 3.0
18.68000, 1.0
18.70000, 2.0
18.72000, 4.0
18.74000, 0.0
18.76000, 3.0
18.78000, 2.0
18.80000, 2.0
18.82000, 2.0
18.84000, 3.0
18.86000, 0.0
18.88000, 3.0
18.90000, 1.0
18.92000, 2.0
18.94000, 1.0
18.96000, 1.0
18.98000, 1.0
19.00000, 2.0
19.02000, 1.0
19.04000, 2.0
19.06000, 2.0
19.08000, 0.0
19.10000, 2.0
19.12000, 1.0
19.14000, 0.0
19.16000, 1.0
19.18000, 2.0
19.20000, 0.0
19.22000, 3.0
19.24000, 1.0
19.26000, 2.0
19.28000, 2.0
19.30000, 0.0
19.32000, 2.0
19.34000, 0.0
19.36000, 0.0
19.38000, 0.0
19.40000, 1.0
19.42000, 1.0
19.44000, 0.0
19.46000, 0.0
19.48000, 0.0
19.50000, 1.0
19.52000, 1.0
19.54000, 0.0
19.56000, 1.0
19.58000, 2.0
19.60000, 0.0
19.62000, 0.0
19.64000, 0.0
19.66000, 1.0
19.68000, 0.0
19.70000, 0.0
19.72000, 2.0
19.74000, 2.0
19.76000, 1.0
19.78000, 0.0
19.80000, 1.0
19.82000, 1.0
19.84000, 1.0
19.86000, 0.0
19.88000, 0.0
19.90000, 1.0
19.92000, 0.0
19.94000, 0.0
19.96000, 0.0
19.98000, 1.0
20.00000, 0.0
20.02000, 0.0
20.04000, 0.0
20.06000, 0.0
20.08000, 0.0
20.10000, 0.0
20.12000, 0.0
20.14000, 0.0
20.16000, 0.0
20.18000, 0.0
20.20000, 0.0
20.22000, 0.0
20.24000, 0.0
20.26000, 0.0
20.27000, 0.0
#ENDOFDATA   :