File: SEM/010422/CL15_D/reports/CL15_D Spectrum 2.txt
#FORMAT      : EMSA/MAS Spectral Data File
#VERSION     : 1.0
#TITLE       : Spectrum 2
#DATE        : 04-JAN-2022
#TIME        : 13:49
#OWNER       :
#NPOINTS     : 2048.0
#NCOLUMNS    : 1.0
#XUNITS      : keV
#YUNITS      : counts
#DATATYPE    : XY
#XPERCHAN    : 0.01
#OFFSET      : -0.2
#SIGNALTYPE  : EDS
#CHOFFSET    : 20.0
#LIVETIME    : 40.0
#REALTIME    : 42.5244
#BEAMKV      : 20.0
#MAGCAM      : 500.0
#XTILTSTGE   : 0.0
#AZIMANGLE   : 0.0
#ELEVANGLE   : 35.0
#XPOSITION mm: 9.8132
#YPOSITION mm: -6.3588
#ZPOSITION mm: 10.0000
##OXINSTPT   : 4
##OXINSTSTROB: 43.50
##OXINSTNDET : 1
##OXINSTELEMS: 6,26,25,8,14,16,23,24,29
##OXINSTLABEL: 6, 0.277, C
##OXINSTLABEL: 26, 6.404, Fe
##OXINSTLABEL: 26, 7.058, Fe
##OXINSTLABEL: 26, 0.703, Fe
##OXINSTLABEL: 26, 0.615, Fe
##OXINSTLABEL: 25, 5.899, Mn
##OXINSTLABEL: 25, 6.490, Mn
##OXINSTLABEL: 25, 0.636, Mn
##OXINSTLABEL: 25, 0.556, Mn
##OXINSTLABEL: 8, 0.525, O
##OXINSTLABEL: 14, 1.740, Si
##OXINSTLABEL: 16, 2.308, S
##OXINSTLABEL: 16, 2.464, S
##OXINSTLABEL: 23, 4.952, V
##OXINSTLABEL: 23, 5.427, V
##OXINSTLABEL: 23, 0.511, V
##OXINSTLABEL: 23, 0.446, V
##OXINSTLABEL: 24, 5.415, Cr
##OXINSTLABEL: 24, 5.947, Cr
##OXINSTLABEL: 24, 0.573, Cr
##OXINSTLABEL: 24, 0.500, Cr
##OXINSTLABEL: 29, 8.048, Cu
##OXINSTLABEL: 29, 8.905, Cu
##OXINSTLABEL: 29, 0.930, Cu
##OXINSTLABEL: 29, 0.832, Cu
##OXINSTLABEL: 29, 0.811, Cu
#SPECTRUM    : Spectral Data Starts Here
-0.20000, 0.0
-0.18000, 0.0
-0.16000, 0.0
-0.14000, 0.0
-0.12000, 0.0
-0.10000, 0.0
-0.08000, 0.0
-0.06000, 0.0
-0.04000, 55.0
-0.02000, 355.0
0.00000, 1017.0
0.02000, 1617.0
0.04000, 1704.0
0.06000, 900.0
0.08000, 286.0
0.10000, 150.0
0.12000, 128.0
0.14000, 117.0
0.16000, 132.0
0.18000, 156.0
0.20000, 189.0
0.22000, 283.0
0.24000, 621.0
0.26000, 1287.0
0.28000, 1429.0
0.30000, 797.0
0.32000, 299.0
0.34000, 199.0
0.36000, 235.0
0.38000, 307.0
0.40000, 320.0
0.42000, 316.0
0.44000, 350.0
0.46000, 428.0
0.48000, 612.0
0.50000, 946.0
0.52000, 1271.0
0.54000, 1255.0
0.56000, 1187.0
0.58000, 1953.0
0.60000, 3315.0
0.62000, 4157.0
0.64000, 3649.0
0.66000, 4004.0
0.68000, 7007.0
0.70000, 10163.0
0.72000, 8844.0
0.74000, 4438.0
0.76000, 1499.0
0.78000, 531.0
0.80000, 311.0
0.82000, 227.0
0.84000, 223.0
0.86000, 187.0
0.88000, 187.0
0.90000, 176.0
0.92000, 234.0
0.94000, 218.0
0.96000, 234.0
0.98000, 244.0
1.00000, 218.0
1.02000, 214.0
1.04000, 244.0
1.06000, 254.0
1.08000, 249.0
1.10000, 281.0
1.12000, 258.0
1.14000, 274.0
1.16000, 296.0
1.18000, 289.0
1.20000, 294.0
1.22000, 298.0
1.24000, 281.0
1.26000, 323.0
1.28000, 318.0
1.30000, 327.0
1.32000, 326.0
1.34000, 331.0
1.36000, 359.0
1.38000, 329.0
1.40000, 323.0
1.42000, 353.0
1.44000, 368.0
1.46000, 344.0
1.48000, 356.0
1.50000, 353.0
1.52000, 374.0
1.54000, 364.0
1.56000, 375.0
1.58000, 363.0
1.60000, 332.0
1.62000, 354.0
1.64000, 400.0
1.66000, 375.0
1.68000, 398.0
1.70000, 419.0
1.72000, 449.0
1.74000, 508.0
1.76000, 515.0
1.78000, 455.0
1.80000, 418.0
1.82000, 417.0
1.84000, 408.0
1.86000, 373.0
1.88000, 361.0
1.90000, 379.0
1.92000, 372.0
1.94000, 358.0
1.96000, 384.0
1.98000, 398.0
2.00000, 408.0
2.02000, 378.0
2.04000, 391.0
2.06000, 384.0
2.08000, 395.0
2.10000, 390.0
2.12000, 415.0
2.14000, 370.0
2.16000, 376.0
2.18000, 402.0
2.20000, 388.0
2.22000, 403.0
2.24000, 392.0
2.26000, 421.0
2.28000, 420.0
2.30000, 508.0
2.32000, 477.0
2.34000, 450.0
2.36000, 406.0
2.38000, 416.0
2.40000, 398.0
2.42000, 403.0
2.44000, 419.0
2.46000, 411.0
2.48000, 408.0
2.50000, 406.0
2.52000, 427.0
2.54000, 380.0
2.56000, 410.0
2.58000, 394.0
2.60000, 413.0
2.62000, 375.0
2.64000, 374.0
2.66000, 376.0
2.68000, 401.0
2.70000, 394.0
2.72000, 377.0
2.74000, 364.0
2.76000, 354.0
2.78000, 385.0
2.80000, 401.0
2.82000, 373.0
2.84000, 369.0
2.86000, 359.0
2.88000, 348.0
2.90000, 385.0
2.92000, 350.0
2.94000, 369.0
2.96000, 363.0
2.98000, 372.0
3.00000, 347.0
3.02000, 350.0
3.04000, 364.0
3.06000, 366.0
3.08000, 347.0
3.10000, 340.0
3.12000, 363.0
3.14000, 353.0
3.16000, 375.0
3.18000, 334.0
3.20000, 385.0
3.22000, 368.0
3.24000, 353.0
3.26000, 344.0
3.28000, 364.0
3.30000, 343.0
3.32000, 351.0
3.34000, 358.0
3.36000, 352.0
3.38000, 356.0
3.40000, 311.0
3.42000, 333.0
3.44000, 359.0
3.46000, 346.0
3.48000, 330.0
3.50000, 328.0
3.52000, 330.0
3.54000, 366.0
3.56000, 328.0
3.58000, 333.0
3.60000, 324.0
3.62000, 318.0
3.64000, 299.0
3.66000, 329.0
3.68000, 319.0
3.70000, 328.0
3.72000, 323.0
3.74000, 318.0
3.76000, 314.0
3.78000, 299.0
3.80000, 341.0
3.82000, 345.0
3.84000, 308.0
3.86000, 322.0
3.88000, 323.0
3.90000, 307.0
3.92000, 321.0
3.94000, 348.0
3.96000, 342.0
3.98000, 280.0
4.00000, 297.0
4.02000, 293.0
4.04000, 281.0
4.06000, 311.0
4.08000, 290.0
4.10000, 281.0
4.12000, 278.0
4.14000, 289.0
4.16000, 309.0
4.18000, 304.0
4.20000, 285.0
4.22000, 302.0
4.24000, 295.0
4.26000, 300.0
4.28000, 298.0
4.30000, 295.0
4.32000, 275.0
4.34000, 279.0
4.36000, 261.0
4.38000, 294.0
4.40000, 279.0
4.42000, 289.0
4.44000, 284.0
4.46000, 304.0
4.48000, 294.0
4.50000, 277.0
4.52000, 256.0
4.54000, 288.0
4.56000, 301.0
4.58000, 313.0
4.60000, 275.0
4.62000, 330.0
4.64000, 307.0
4.66000, 332.0
4.68000, 329.0
4.70000, 305.0
4.72000, 266.0
4.74000, 282.0
4.76000, 265.0
4.78000, 243.0
4.80000, 245.0
4.82000, 248.0
4.84000, 286.0
4.86000, 249.0
4.88000, 275.0
4.90000, 262.0
4.92000, 266.0
4.94000, 305.0
4.96000, 302.0
4.98000, 295.0
5.00000, 278.0
5.02000, 260.0
5.04000, 274.0
5.06000, 235.0
5.08000, 246.0
5.10000, 246.0
5.12000, 237.0
5.14000, 243.0
5.16000, 229.0
5.18000, 238.0
5.20000, 217.0
5.22000, 228.0
5.24000, 248.0
5.26000, 231.0
5.28000, 244.0
5.30000, 258.0
5.32000, 253.0
5.34000, 272.0
5.36000, 283.0
5.38000, 316.0
5.40000, 286.0
5.42000, 307.0
5.44000, 287.0
5.46000, 283.0
5.48000, 278.0
5.50000, 248.0
5.52000, 239.0
5.54000, 229.0
5.56000, 240.0
5.58000, 211.0
5.60000, 218.0
5.62000, 232.0
5.64000, 229.0
5.66000, 203.0
5.68000, 228.0
5.70000, 214.0
5.72000, 206.0
5.74000, 234.0
5.76000, 220.0
5.78000, 235.0
5.80000, 273.0
5.82000, 316.0
5.84000, 371.0
5.86000, 461.0
5.88000, 514.0
5.90000, 506.0
5.92000, 478.0
5.94000, 401.0
5.96000, 356.0
5.98000, 293.0
6.00000, 279.0
6.02000, 236.0
6.04000, 220.0
6.06000, 228.0
6.08000, 212.0
6.10000, 223.0
6.12000, 235.0
6.14000, 245.0
6.16000, 242.0
6.18000, 239.0
6.20000, 281.0
6.22000, 330.0
6.24000, 548.0
6.26000, 1094.0
6.28000, 1951.0
6.30000, 3792.0
6.32000, 6412.0
6.34000, 10007.0
6.36000, 13367.0
6.38000, 16144.0
6.40000, 17271.0
6.42000, 16238.0
6.44000, 13574.0
6.46000, 9895.0
6.48000, 6403.0
6.50000, 3629.0
6.52000, 2023.0
6.54000, 974.0
6.56000, 527.0
6.58000, 311.0
6.60000, 246.0
6.62000, 217.0
6.64000, 235.0
6.66000, 193.0
6.68000, 178.0
6.70000, 205.0
6.72000, 216.0
6.74000, 213.0
6.76000, 181.0
6.78000, 191.0
6.80000, 227.0
6.82000, 202.0
6.84000, 220.0
6.86000, 235.0
6.88000, 272.0
6.90000, 291.0
6.92000, 426.0
6.94000, 517.0
6.96000, 820.0
6.98000, 1221.0
7.00000, 1558.0
7.02000, 2083.0
7.04000, 2347.0
7.06000, 2405.0
7.08000, 2113.0
7.10000, 1826.0
7.12000, 1312.0
7.14000, 946.0
7.16000, 578.0
7.18000, 367.0
7.20000, 222.0
7.22000, 158.0
7.24000, 128.0
7.26000, 106.0
7.28000, 109.0
7.30000, 107.0
7.32000, 120.0
7.34000, 116.0
7.36000, 113.0
7.38000, 108.0
7.40000, 120.0
7.42000, 122.0
7.44000, 97.0
7.46000, 110.0
7.48000, 115.0
7.50000, 126.0
7.52000, 121.0
7.54000, 111.0
7.56000, 94.0
7.58000, 106.0
7.60000, 113.0
7.62000, 108.0
7.64000, 110.0
7.66000, 109.0
7.68000, 85.0
7.70000, 104.0
7.72000, 101.0
7.74000, 97.0
7.76000, 112.0
7.78000, 105.0
7.80000, 98.0
7.82000, 97.0
7.84000, 104.0
7.86000, 108.0
7.88000, 118.0
7.90000, 93.0
7.92000, 95.0
7.94000, 109.0
7.96000, 110.0
7.98000, 126.0
8.00000, 123.0
8.02000, 112.0
8.04000, 122.0
8.06000, 121.0
8.08000, 116.0
8.10000, 117.0
8.12000, 106.0
8.14000, 109.0
8.16000, 110.0
8.18000, 107.0
8.20000, 94.0
8.22000, 93.0
8.24000, 115.0
8.26000, 96.0
8.28000, 111.0
8.30000, 115.0
8.32000, 93.0
8.34000, 95.0
8.36000, 100.0
8.38000, 89.0
8.40000, 79.0
8.42000, 91.0
8.44000, 102.0
8.46000, 94.0
8.48000, 99.0
8.50000, 86.0
8.52000, 89.0
8.54000, 92.0
8.56000, 87.0
8.58000, 84.0
8.60000, 88.0
8.62000, 90.0
8.64000, 105.0
8.66000, 81.0
8.68000, 68.0
8.70000, 90.0
8.72000, 107.0
8.74000, 83.0
8.76000, 88.0
8.78000, 85.0
8.80000, 97.0
8.82000, 100.0
8.84000, 94.0
8.86000, 91.0
8.88000, 83.0
8.90000, 85.0
8.92000, 101.0
8.94000, 97.0
8.96000, 81.0
8.98000, 79.0
9.00000, 96.0
9.02000, 91.0
9.04000, 86.0
9.06000, 84.0
9.08000, 83.0
9.10000, 104.0
9.12000, 99.0
9.14000, 78.0
9.16000, 98.0
9.18000, 101.0
9.20000, 96.0
9.22000, 81.0
9.24000, 84.0
9.26000, 100.0
9.28000, 80.0
9.30000, 83.0
9.32000, 71.0
9.34000, 85.0
9.36000, 88.0
9.38000, 89.0
9.40000, 68.0
9.42000, 88.0
9.44000, 72.0
9.46000, 76.0
9.48000, 79.0
9.50000, 74.0
9.52000, 81.0
9.54000, 83.0
9.56000, 79.0
9.58000, 76.0
9.60000, 81.0
9.62000, 87.0
9.64000, 77.0
9.66000, 73.0
9.68000, 70.0
9.70000, 71.0
9.72000, 76.0
9.74000, 81.0
9.76000, 84.0
9.78000, 70.0
9.80000, 85.0
9.82000, 71.0
9.84000, 72.0
9.86000, 83.0
9.88000, 79.0
9.90000, 81.0
9.92000, 89.0
9.94000, 83.0
9.96000, 85.0
9.98000, 70.0
10.00000, 81.0
10.02000, 78.0
10.04000, 84.0
10.06000, 74.0
10.08000, 68.0
10.10000, 73.0
10.12000, 82.0
10.14000, 63.0
10.16000, 84.0
10.18000, 59.0
10.20000, 70.0
10.22000, 80.0
10.24000, 65.0
10.26000, 63.0
10.28000, 67.0
10.30000, 70.0
10.32000, 64.0
10.34000, 69.0
10.36000, 80.0
10.38000, 66.0
10.40000, 60.0
10.42000, 68.0
10.44000, 74.0
10.46000, 70.0
10.48000, 69.0
10.50000, 68.0
10.52000, 67.0
10.54000, 73.0
10.56000, 68.0
10.58000, 65.0
10.60000, 72.0
10.62000, 69.0
10.64000, 68.0
10.66000, 65.0
10.68000, 75.0
10.70000, 56.0
10.72000, 61.0
10.74000, 68.0
10.76000, 65.0
10.78000, 74.0
10.80000, 70.0
10.82000, 57.0
10.84000, 66.0
10.86000, 63.0
10.88000, 63.0
10.90000, 74.0
10.92000, 67.0
10.94000, 54.0
10.96000, 60.0
10.98000, 44.0
11.00000, 59.0
11.02000, 55.0
11.04000, 65.0
11.06000, 78.0
11.08000, 57.0
11.10000, 66.0
11.12000, 53.0
11.14000, 62.0
11.16000, 53.0
11.18000, 59.0
11.20000, 51.0
11.22000, 52.0
11.24000, 53.0
11.26000, 50.0
11.28000, 65.0
11.30000, 51.0
11.32000, 57.0
11.34000, 50.0
11.36000, 56.0
11.38000, 51.0
11.40000, 51.0
11.42000, 49.0
11.44000, 57.0
11.46000, 53.0
11.48000, 50.0
11.50000, 57.0
11.52000, 65.0
11.54000, 61.0
11.56000, 55.0
11.58000, 51.0
11.60000, 45.0
11.62000, 62.0
11.64000, 52.0
11.66000, 40.0
11.68000, 47.0
11.70000, 58.0
11.72000, 58.0
11.74000, 51.0
11.76000, 56.0
11.78000, 47.0
11.80000, 52.0
11.82000, 52.0
11.84000, 55.0
11.86000, 55.0
11.88000, 48.0
11.90000, 59.0
11.92000, 50.0
11.94000, 47.0
11.96000, 43.0
11.98000, 46.0
12.00000, 51.0
12.02000, 48.0
12.04000, 51.0
12.06000, 42.0
12.08000, 54.0
12.10000, 62.0
12.12000, 46.0
12.14000, 49.0
12.16000, 43.0
12.18000, 43.0
12.20000, 49.0
12.22000, 45.0
12.24000, 56.0
12.26000, 56.0
12.28000, 46.0
12.30000, 48.0
12.32000, 46.0
12.34000, 50.0
12.36000, 56.0
12.38000, 45.0
12.40000, 49.0
12.42000, 47.0
12.44000, 45.0
12.46000, 37.0
12.48000, 35.0
12.50000, 41.0
12.52000, 47.0
12.54000, 61.0
12.56000, 44.0
12.58000, 40.0
12.60000, 41.0
12.62000, 28.0
12.64000, 48.0
12.66000, 55.0
12.68000, 44.0
12.70000, 37.0
12.72000, 52.0
12.74000, 43.0
12.76000, 56.0
12.78000, 60.0
12.80000, 65.0
12.82000, 66.0
12.84000, 63.0
12.86000, 57.0
12.88000, 59.0
12.90000, 44.0
12.92000, 45.0
12.94000, 40.0
12.96000, 40.0
12.98000, 41.0
13.00000, 34.0
13.02000, 35.0
13.04000, 36.0
13.06000, 32.0
13.08000, 44.0
13.10000, 27.0
13.12000, 38.0
13.14000, 41.0
13.16000, 33.0
13.18000, 28.0
13.20000, 43.0
13.22000, 42.0
13.24000, 32.0
13.26000, 32.0
13.28000, 33.0
13.30000, 35.0
13.32000, 29.0
13.34000, 38.0
13.36000, 42.0
13.38000, 49.0
13.40000, 29.0
13.42000, 32.0
13.44000, 28.0
13.46000, 31.0
13.48000, 38.0
13.50000, 43.0
13.52000, 34.0
13.54000, 29.0
13.56000, 29.0
13.58000, 40.0
13.60000, 30.0
13.62000, 37.0
13.64000, 32.0
13.66000, 32.0
13.68000, 22.0
13.70000, 24.0
13.72000, 26.0
13.74000, 29.0
13.76000, 22.0
13.78000, 19.0
13.80000, 28.0
13.82000, 27.0
13.84000, 38.0
13.86000, 41.0
13.88000, 31.0
13.90000, 26.0
13.92000, 29.0
13.94000, 42.0
13.96000, 16.0
13.98000, 25.0
14.00000, 22.0
14.02000, 26.0
14.04000, 25.0
14.06000, 23.0
14.08000, 33.0
14.10000, 17.0
14.12000, 24.0
14.14000, 26.0
14.16000, 22.0
14.18000, 14.0
14.20000, 15.0
14.22000, 18.0
14.24000, 21.0
14.26000, 27.0
14.28000, 27.0
14.30000, 26.0
14.32000, 29.0
14.34000, 26.0
14.36000, 28.0
14.38000, 29.0
14.40000, 26.0
14.42000, 30.0
14.44000, 25.0
14.46000, 26.0
14.48000, 30.0
14.50000, 21.0
14.52000, 30.0
14.54000, 25.0
14.56000, 18.0
14.58000, 22.0
14.60000, 13.0
14.62000, 21.0
14.64000, 13.0
14.66000, 23.0
14.68000, 20.0
14.70000, 30.0
14.72000, 18.0
14.74000, 19.0
14.76000, 14.0
14.78000, 24.0
14.80000, 23.0
14.82000, 25.0
14.84000, 20.0
14.86000, 27.0
14.88000, 25.0
14.90000, 27.0
14.92000, 20.0
14.94000, 17.0
14.96000, 30.0
14.98000, 30.0
15.00000, 26.0
15.02000, 15.0
15.04000, 16.0
15.06000, 15.0
15.08000, 17.0
15.10000, 32.0
15.12000, 19.0
15.14000, 14.0
15.16000, 22.0
15.18000, 13.0
15.20000, 14.0
15.22000, 17.0
15.24000, 20.0
15.26000, 20.0
15.28000, 26.0
15.30000, 21.0
15.32000, 24.0
15.34000, 25.0
15.36000, 18.0
15.38000, 15.0
15.40000, 17.0
15.42000, 14.0
15.44000, 16.0
15.46000, 16.0
15.48000, 24.0
15.50000, 20.0
15.52000, 19.0
15.54000, 18.0
15.56000, 21.0
15.58000, 15.0
15.60000, 16.0
15.62000, 14.0
15.64000, 16.0
15.66000, 25.0
15.68000, 13.0
15.70000, 19.0
15.72000, 14.0
15.74000, 11.0
15.76000, 12.0
15.78000, 9.0
15.80000, 14.0
15.82000, 13.0
15.84000, 13.0
15.86000, 17.0
15.88000, 15.0
15.90000, 8.0
15.92000, 12.0
15.94000, 16.0
15.96000, 10.0
15.98000, 10.0
16.00000, 23.0
16.02000, 22.0
16.04000, 13.0
16.06000, 16.0
16.08000, 11.0
16.10000, 11.0
16.12000, 19.0
16.14000, 12.0
16.16000, 19.0
16.18000, 9.0
16.20000, 13.0
16.22000, 13.0
16.24000, 13.0
16.26000, 15.0
16.28000, 14.0
16.30000, 16.0
16.32000, 12.0
16.34000, 7.0
16.36000, 14.0
16.38000, 14.0
16.40000, 9.0
16.42000, 20.0
16.44000, 6.0
16.46000, 11.0
16.48000, 8.0
16.50000, 17.0
16.52000, 7.0
16.54000, 9.0
16.56000, 12.0
16.58000, 18.0
16.60000, 8.0
16.62000, 13.0
16.64000, 10.0
16.66000, 7.0
16.68000, 10.0
16.70000, 13.0
16.72000, 9.0
16.74000, 11.0
16.76000, 9.0
16.78000, 13.0
16.80000, 8.0
16.82000, 4.0
16.84000, 6.0
16.86000, 6.0
16.88000, 13.0
16.90000, 8.0
16.92000, 16.0
16.94000, 8.0
16.96000, 13.0
16.98000, 8.0
17.00000, 10.0
17.02000, 12.0
17.04000, 8.0
17.06000, 15.0
17.08000, 6.0
17.10000, 9.0
17.12000, 7.0
17.14000, 10.0
17.16000, 11.0
17.18000, 10.0
17.20000, 7.0
17.22000, 8.0
17.24000, 7.0
17.26000, 8.0
17.28000, 7.0
17.30000, 3.0
17.32000, 6.0
17.34000, 13.0
17.36000, 11.0
17.38000, 11.0
17.40000, 8.0
17.42000, 12.0
17.44000, 10.0
17.46000, 4.0
17.48000, 7.0
17.50000, 6.0
17.52000, 7.0
17.54000, 2.0
17.56000, 11.0
17.58000, 7.0
17.60000, 7.0
17.62000, 8.0
17.64000, 6.0
17.66000, 3.0
17.68000, 4.0
17.70000, 9.0
17.72000, 7.0
17.74000, 6.0
17.76000, 7.0
17.78000, 6.0
17.80000, 3.0
17.82000, 3.0
17.84000, 3.0
17.86000, 5.0
17.88000, 5.0
17.90000, 5.0
17.92000, 6.0
17.94000, 6.0
17.96000, 8.0
17.98000, 4.0
18.00000, 3.0
18.02000, 9.0
18.04000, 3.0
18.06000, 4.0
18.08000, 8.0
18.10000, 5.0
18.12000, 5.0
18.14000, 4.0
18.16000, 4.0
18.18000, 3.0
18.20000, 3.0
18.22000, 3.0
18.24000, 4.0
18.26000, 5.0
18.28000, 3.0
18.30000, 7.0
18.32000, 7.0
18.34000, 6.0
18.36000, 4.0
18.38000, 6.0
18.40000, 4.0
18.42000, 8.0
18.44000, 2.0
18.46000, 3.0
18.48000, 3.0
18.50000, 4.0
18.52000, 4.0
18.54000, 2.0
18.56000, 2.0
18.58000, 2.0
18.60000, 4.0
18.62000, 1.0
18.64000, 8.0
18.66000, 1.0
18.68000, 2.0
18.70000, 2.0
18.72000, 1.0
18.74000, 3.0
18.76000, 4.0
18.78000, 3.0
18.80000, 1.0
18.82000, 3.0
18.84000, 1.0
18.86000, 3.0
18.88000, 1.0
18.90000, 2.0
18.92000, 1.0
18.94000, 5.0
18.96000, 5.0
18.98000, 3.0
19.00000, 5.0
19.02000, 0.0
19.04000, 2.0
19.06000, 6.0
19.08000, 4.0
19.10000, 2.0
19.12000, 2.0
19.14000, 2.0
19.16000, 3.0
19.18000, 2.0
19.20000, 1.0
19.22000, 3.0
19.24000, 1.0
19.26000, 1.0
19.28000, 1.0
19.30000, 2.0
19.32000, 1.0
19.34000, 0.0
19.36000, 1.0
19.38000, 0.0
19.40000, 0.0
19.42000, 2.0
19.44000, 2.0
19.46000, 0.0
19.48000, 0.0
19.50000, 1.0
19.52000, 2.0
19.54000, 0.0
19.56000, 2.0
19.58000, 1.0
19.60000, 3.0
19.62000, 1.0
19.64000, 1.0
19.66000, 2.0
19.68000, 1.0
19.70000, 1.0
19.72000, 0.0
19.74000, 0.0
19.76000, 2.0
19.78000, 1.0
19.80000, 0.0
19.82000, 2.0
19.84000, 1.0
19.86000, 2.0
19.88000, 0.0
19.90000, 1.0
19.92000, 2.0
19.94000, 0.0
19.96000, 0.0
19.98000, 1.0
20.00000, 1.0
20.02000, 1.0
20.04000, 0.0
20.06000, 0.0
20.08000, 1.0
20.10000, 0.0
20.12000, 0.0
20.14000, 0.0
20.16000, 0.0
20.18000, 0.0
20.20000, 0.0
20.22000, 2.0
20.24000, 0.0
20.26000, 1.0
20.27000, 0.0
#ENDOFDATA   :