File: SEM/010422/CL15_D/reports/CL15_D Spectrum 3.txt
#FORMAT      : EMSA/MAS Spectral Data File
#VERSION     : 1.0
#TITLE       : Spectrum 3
#DATE        : 04-JAN-2022
#TIME        : 13:59
#OWNER       :
#NPOINTS     : 2048.0
#NCOLUMNS    : 1.0
#XUNITS      : keV
#YUNITS      : counts
#DATATYPE    : XY
#XPERCHAN    : 0.01
#OFFSET      : -0.2
#SIGNALTYPE  : EDS
#CHOFFSET    : 20.0
#LIVETIME    : 40.0
#REALTIME    : 41.5926
#BEAMKV      : 20.0
#MAGCAM      : 500.0
#XTILTSTGE   : 0.0
#AZIMANGLE   : 0.0
#ELEVANGLE   : 35.0
#XPOSITION mm: 6.2618
#YPOSITION mm: 3.3867
#ZPOSITION mm: 10.0000
##OXINSTPT   : 4
##OXINSTSTROB: 43.49
##OXINSTNDET : 1
##OXINSTELEMS: 6,26,25,8,16,24,14
##OXINSTLABEL: 6, 0.277, C
##OXINSTLABEL: 26, 6.404, Fe
##OXINSTLABEL: 26, 7.058, Fe
##OXINSTLABEL: 26, 0.703, Fe
##OXINSTLABEL: 26, 0.615, Fe
##OXINSTLABEL: 25, 5.899, Mn
##OXINSTLABEL: 25, 6.490, Mn
##OXINSTLABEL: 25, 0.636, Mn
##OXINSTLABEL: 25, 0.556, Mn
##OXINSTLABEL: 8, 0.525, O
##OXINSTLABEL: 16, 2.308, S
##OXINSTLABEL: 16, 2.464, S
##OXINSTLABEL: 24, 5.415, Cr
##OXINSTLABEL: 24, 5.947, Cr
##OXINSTLABEL: 24, 0.573, Cr
##OXINSTLABEL: 24, 0.500, Cr
##OXINSTLABEL: 14, 1.740, Si
#SPECTRUM    : Spectral Data Starts Here
-0.20000, 0.0
-0.18000, 0.0
-0.16000, 0.0
-0.14000, 0.0
-0.12000, 0.0
-0.10000, 0.0
-0.08000, 0.0
-0.06000, 3.0
-0.04000, 39.0
-0.02000, 315.0
0.00000, 1094.0
0.02000, 1792.0
0.04000, 1958.0
0.06000, 1000.0
0.08000, 261.0
0.10000, 101.0
0.12000, 67.0
0.14000, 82.0
0.16000, 71.0
0.18000, 92.0
0.20000, 121.0
0.22000, 178.0
0.24000, 474.0
0.26000, 930.0
0.28000, 978.0
0.30000, 552.0
0.32000, 189.0
0.34000, 92.0
0.36000, 116.0
0.38000, 170.0
0.40000, 171.0
0.42000, 170.0
0.44000, 162.0
0.46000, 217.0
0.48000, 293.0
0.50000, 473.0
0.52000, 667.0
0.54000, 570.0
0.56000, 551.0
0.58000, 901.0
0.60000, 1614.0
0.62000, 1882.0
0.64000, 1729.0
0.66000, 1909.0
0.68000, 3323.0
0.70000, 4783.0
0.72000, 4181.0
0.74000, 2128.0
0.76000, 724.0
0.78000, 229.0
0.80000, 154.0
0.82000, 130.0
0.84000, 116.0
0.86000, 104.0
0.88000, 104.0
0.90000, 112.0
0.92000, 121.0
0.94000, 132.0
0.96000, 116.0
0.98000, 120.0
1.00000, 121.0
1.02000, 119.0
1.04000, 121.0
1.06000, 133.0
1.08000, 140.0
1.10000, 131.0
1.12000, 146.0
1.14000, 143.0
1.16000, 139.0
1.18000, 133.0
1.20000, 165.0
1.22000, 156.0
1.24000, 153.0
1.26000, 146.0
1.28000, 174.0
1.30000, 155.0
1.32000, 173.0
1.34000, 149.0
1.36000, 162.0
1.38000, 180.0
1.40000, 175.0
1.42000, 164.0
1.44000, 164.0
1.46000, 161.0
1.48000, 173.0
1.50000, 191.0
1.52000, 156.0
1.54000, 161.0
1.56000, 166.0
1.58000, 157.0
1.60000, 174.0
1.62000, 177.0
1.64000, 175.0
1.66000, 183.0
1.68000, 200.0
1.70000, 198.0
1.72000, 218.0
1.74000, 260.0
1.76000, 231.0
1.78000, 230.0
1.80000, 214.0
1.82000, 188.0
1.84000, 180.0
1.86000, 196.0
1.88000, 173.0
1.90000, 188.0
1.92000, 180.0
1.94000, 177.0
1.96000, 178.0
1.98000, 174.0
2.00000, 193.0
2.02000, 175.0
2.04000, 177.0
2.06000, 187.0
2.08000, 166.0
2.10000, 190.0
2.12000, 203.0
2.14000, 203.0
2.16000, 170.0
2.18000, 187.0
2.20000, 186.0
2.22000, 178.0
2.24000, 184.0
2.26000, 215.0
2.28000, 219.0
2.30000, 257.0
2.32000, 256.0
2.34000, 204.0
2.36000, 224.0
2.38000, 213.0
2.40000, 190.0
2.42000, 185.0
2.44000, 189.0
2.46000, 215.0
2.48000, 181.0
2.50000, 191.0
2.52000, 192.0
2.54000, 199.0
2.56000, 180.0
2.58000, 196.0
2.60000, 185.0
2.62000, 195.0
2.64000, 188.0
2.66000, 193.0
2.68000, 194.0
2.70000, 166.0
2.72000, 175.0
2.74000, 189.0
2.76000, 177.0
2.78000, 180.0
2.80000, 182.0
2.82000, 174.0
2.84000, 202.0
2.86000, 169.0
2.88000, 183.0
2.90000, 189.0
2.92000, 189.0
2.94000, 158.0
2.96000, 191.0
2.98000, 178.0
3.00000, 170.0
3.02000, 187.0
3.04000, 165.0
3.06000, 197.0
3.08000, 178.0
3.10000, 175.0
3.12000, 201.0
3.14000, 164.0
3.16000, 155.0
3.18000, 176.0
3.20000, 188.0
3.22000, 168.0
3.24000, 178.0
3.26000, 185.0
3.28000, 174.0
3.30000, 182.0
3.32000, 176.0
3.34000, 182.0
3.36000, 197.0
3.38000, 168.0
3.40000, 189.0
3.42000, 172.0
3.44000, 172.0
3.46000, 175.0
3.48000, 183.0
3.50000, 172.0
3.52000, 171.0
3.54000, 161.0
3.56000, 174.0
3.58000, 151.0
3.60000, 173.0
3.62000, 171.0
3.64000, 176.0
3.66000, 161.0
3.68000, 186.0
3.70000, 192.0
3.72000, 175.0
3.74000, 159.0
3.76000, 167.0
3.78000, 152.0
3.80000, 159.0
3.82000, 138.0
3.84000, 167.0
3.86000, 170.0
3.88000, 156.0
3.90000, 181.0
3.92000, 153.0
3.94000, 149.0
3.96000, 161.0
3.98000, 163.0
4.00000, 161.0
4.02000, 160.0
4.04000, 136.0
4.06000, 162.0
4.08000, 147.0
4.10000, 140.0
4.12000, 149.0
4.14000, 153.0
4.16000, 150.0
4.18000, 163.0
4.20000, 145.0
4.22000, 131.0
4.24000, 145.0
4.26000, 146.0
4.28000, 147.0
4.30000, 151.0
4.32000, 151.0
4.34000, 152.0
4.36000, 166.0
4.38000, 153.0
4.40000, 151.0
4.42000, 146.0
4.44000, 149.0
4.46000, 121.0
4.48000, 151.0
4.50000, 146.0
4.52000, 150.0
4.54000, 139.0
4.56000, 147.0
4.58000, 163.0
4.60000, 170.0
4.62000, 196.0
4.64000, 157.0
4.66000, 180.0
4.68000, 180.0
4.70000, 171.0
4.72000, 161.0
4.74000, 144.0
4.76000, 123.0
4.78000, 150.0
4.80000, 151.0
4.82000, 136.0
4.84000, 143.0
4.86000, 152.0
4.88000, 142.0
4.90000, 151.0
4.92000, 161.0
4.94000, 160.0
4.96000, 154.0
4.98000, 163.0
5.00000, 140.0
5.02000, 127.0
5.04000, 145.0
5.06000, 157.0
5.08000, 132.0
5.10000, 133.0
5.12000, 127.0
5.14000, 124.0
5.16000, 146.0
5.18000, 124.0
5.20000, 133.0
5.22000, 144.0
5.24000, 146.0
5.26000, 133.0
5.28000, 122.0
5.30000, 144.0
5.32000, 143.0
5.34000, 163.0
5.36000, 148.0
5.38000, 151.0
5.40000, 170.0
5.42000, 185.0
5.44000, 164.0
5.46000, 146.0
5.48000, 146.0
5.50000, 137.0
5.52000, 129.0
5.54000, 137.0
5.56000, 122.0
5.58000, 123.0
5.60000, 128.0
5.62000, 143.0
5.64000, 129.0
5.66000, 145.0
5.68000, 139.0
5.70000, 119.0
5.72000, 119.0
5.74000, 122.0
5.76000, 114.0
5.78000, 132.0
5.80000, 153.0
5.82000, 170.0
5.84000, 235.0
5.86000, 259.0
5.88000, 298.0
5.90000, 291.0
5.92000, 310.0
5.94000, 247.0
5.96000, 229.0
5.98000, 173.0
6.00000, 159.0
6.02000, 144.0
6.04000, 113.0
6.06000, 113.0
6.08000, 123.0
6.10000, 127.0
6.12000, 127.0
6.14000, 126.0
6.16000, 148.0
6.18000, 133.0
6.20000, 156.0
6.22000, 232.0
6.24000, 347.0
6.26000, 631.0
6.28000, 1183.0
6.30000, 2260.0
6.32000, 3932.0
6.34000, 6101.0
6.36000, 8293.0
6.38000, 9831.0
6.40000, 10434.0
6.42000, 9736.0
6.44000, 8151.0
6.46000, 5852.0
6.48000, 3788.0
6.50000, 2287.0
6.52000, 1145.0
6.54000, 613.0
6.56000, 324.0
6.58000, 197.0
6.60000, 141.0
6.62000, 115.0
6.64000, 119.0
6.66000, 121.0
6.68000, 124.0
6.70000, 120.0
6.72000, 119.0
6.74000, 111.0
6.76000, 121.0
6.78000, 127.0
6.80000, 108.0
6.82000, 133.0
6.84000, 128.0
6.86000, 145.0
6.88000, 152.0
6.90000, 186.0
6.92000, 246.0
6.94000, 370.0
6.96000, 503.0
6.98000, 810.0
7.00000, 1008.0
7.02000, 1259.0
7.04000, 1451.0
7.06000, 1426.0
7.08000, 1331.0
7.10000, 1094.0
7.12000, 824.0
7.14000, 558.0
7.16000, 339.0
7.18000, 215.0
7.20000, 140.0
7.22000, 89.0
7.24000, 76.0
7.26000, 45.0
7.28000, 58.0
7.30000, 56.0
7.32000, 57.0
7.34000, 54.0
7.36000, 53.0
7.38000, 54.0
7.40000, 51.0
7.42000, 44.0
7.44000, 48.0
7.46000, 49.0
7.48000, 60.0
7.50000, 48.0
7.52000, 49.0
7.54000, 51.0
7.56000, 49.0
7.58000, 48.0
7.60000, 52.0
7.62000, 53.0
7.64000, 50.0
7.66000, 44.0
7.68000, 56.0
7.70000, 65.0
7.72000, 54.0
7.74000, 51.0
7.76000, 44.0
7.78000, 47.0
7.80000, 56.0
7.82000, 43.0
7.84000, 42.0
7.86000, 44.0
7.88000, 47.0
7.90000, 58.0
7.92000, 54.0
7.94000, 47.0
7.96000, 54.0
7.98000, 55.0
8.00000, 55.0
8.02000, 53.0
8.04000, 59.0
8.06000, 58.0
8.08000, 66.0
8.10000, 68.0
8.12000, 52.0
8.14000, 62.0
8.16000, 46.0
8.18000, 46.0
8.20000, 43.0
8.22000, 49.0
8.24000, 37.0
8.26000, 55.0
8.28000, 51.0
8.30000, 52.0
8.32000, 61.0
8.34000, 45.0
8.36000, 54.0
8.38000, 47.0
8.40000, 50.0
8.42000, 46.0
8.44000, 51.0
8.46000, 54.0
8.48000, 46.0
8.50000, 37.0
8.52000, 58.0
8.54000, 40.0
8.56000, 48.0
8.58000, 41.0
8.60000, 41.0
8.62000, 46.0
8.64000, 52.0
8.66000, 53.0
8.68000, 41.0
8.70000, 45.0
8.72000, 43.0
8.74000, 54.0
8.76000, 55.0
8.78000, 37.0
8.80000, 40.0
8.82000, 47.0
8.84000, 39.0
8.86000, 47.0
8.88000, 39.0
8.90000, 56.0
8.92000, 39.0
8.94000, 47.0
8.96000, 49.0
8.98000, 44.0
9.00000, 40.0
9.02000, 44.0
9.04000, 52.0
9.06000, 44.0
9.08000, 50.0
9.10000, 49.0
9.12000, 44.0
9.14000, 38.0
9.16000, 53.0
9.18000, 50.0
9.20000, 48.0
9.22000, 35.0
9.24000, 43.0
9.26000, 32.0
9.28000, 41.0
9.30000, 33.0
9.32000, 48.0
9.34000, 39.0
9.36000, 47.0
9.38000, 37.0
9.40000, 41.0
9.42000, 32.0
9.44000, 38.0
9.46000, 40.0
9.48000, 40.0
9.50000, 38.0
9.52000, 42.0
9.54000, 48.0
9.56000, 39.0
9.58000, 41.0
9.60000, 43.0
9.62000, 43.0
9.64000, 34.0
9.66000, 40.0
9.68000, 40.0
9.70000, 46.0
9.72000, 57.0
9.74000, 39.0
9.76000, 35.0
9.78000, 43.0
9.80000, 56.0
9.82000, 43.0
9.84000, 41.0
9.86000, 42.0
9.88000, 40.0
9.90000, 41.0
9.92000, 43.0
9.94000, 49.0
9.96000, 41.0
9.98000, 43.0
10.00000, 34.0
10.02000, 35.0
10.04000, 42.0
10.06000, 35.0
10.08000, 40.0
10.10000, 39.0
10.12000, 45.0
10.14000, 36.0
10.16000, 35.0
10.18000, 40.0
10.20000, 41.0
10.22000, 33.0
10.24000, 39.0
10.26000, 47.0
10.28000, 41.0
10.30000, 45.0
10.32000, 39.0
10.34000, 41.0
10.36000, 31.0
10.38000, 38.0
10.40000, 36.0
10.42000, 30.0
10.44000, 45.0
10.46000, 33.0
10.48000, 28.0
10.50000, 37.0
10.52000, 37.0
10.54000, 42.0
10.56000, 35.0
10.58000, 34.0
10.60000, 35.0
10.62000, 34.0
10.64000, 36.0
10.66000, 38.0
10.68000, 43.0
10.70000, 37.0
10.72000, 31.0
10.74000, 33.0
10.76000, 42.0
10.78000, 39.0
10.80000, 24.0
10.82000, 46.0
10.84000, 35.0
10.86000, 37.0
10.88000, 26.0
10.90000, 40.0
10.92000, 40.0
10.94000, 37.0
10.96000, 41.0
10.98000, 27.0
11.00000, 28.0
11.02000, 41.0
11.04000, 40.0
11.06000, 39.0
11.08000, 37.0
11.10000, 33.0
11.12000, 37.0
11.14000, 39.0
11.16000, 31.0
11.18000, 36.0
11.20000, 29.0
11.22000, 37.0
11.24000, 31.0
11.26000, 36.0
11.28000, 27.0
11.30000, 31.0
11.32000, 27.0
11.34000, 28.0
11.36000, 34.0
11.38000, 41.0
11.40000, 26.0
11.42000, 28.0
11.44000, 33.0
11.46000, 36.0
11.48000, 38.0
11.50000, 21.0
11.52000, 30.0
11.54000, 34.0
11.56000, 34.0
11.58000, 29.0
11.60000, 24.0
11.62000, 27.0
11.64000, 22.0
11.66000, 29.0
11.68000, 23.0
11.70000, 28.0
11.72000, 24.0
11.74000, 21.0
11.76000, 28.0
11.78000, 30.0
11.80000, 37.0
11.82000, 32.0
11.84000, 29.0
11.86000, 26.0
11.88000, 35.0
11.90000, 30.0
11.92000, 24.0
11.94000, 29.0
11.96000, 30.0
11.98000, 27.0
12.00000, 35.0
12.02000, 27.0
12.04000, 24.0
12.06000, 29.0
12.08000, 29.0
12.10000, 22.0
12.12000, 36.0
12.14000, 36.0
12.16000, 21.0
12.18000, 24.0
12.20000, 18.0
12.22000, 29.0
12.24000, 25.0
12.26000, 19.0
12.28000, 34.0
12.30000, 21.0
12.32000, 23.0
12.34000, 23.0
12.36000, 18.0
12.38000, 22.0
12.40000, 24.0
12.42000, 19.0
12.44000, 34.0
12.46000, 26.0
12.48000, 23.0
12.50000, 23.0
12.52000, 29.0
12.54000, 25.0
12.56000, 21.0
12.58000, 21.0
12.60000, 24.0
12.62000, 23.0
12.64000, 26.0
12.66000, 30.0
12.68000, 25.0
12.70000, 30.0
12.72000, 31.0
12.74000, 23.0
12.76000, 29.0
12.78000, 46.0
12.80000, 26.0
12.82000, 25.0
12.84000, 27.0
12.86000, 29.0
12.88000, 33.0
12.90000, 19.0
12.92000, 29.0
12.94000, 22.0
12.96000, 25.0
12.98000, 21.0
13.00000, 22.0
13.02000, 21.0
13.04000, 25.0
13.06000, 30.0
13.08000, 22.0
13.10000, 25.0
13.12000, 18.0
13.14000, 25.0
13.16000, 19.0
13.18000, 18.0
13.20000, 19.0
13.22000, 11.0
13.24000, 21.0
13.26000, 19.0
13.28000, 14.0
13.30000, 25.0
13.32000, 20.0
13.34000, 31.0
13.36000, 25.0
13.38000, 18.0
13.40000, 19.0
13.42000, 16.0
13.44000, 19.0
13.46000, 22.0
13.48000, 27.0
13.50000, 26.0
13.52000, 27.0
13.54000, 17.0
13.56000, 18.0
13.58000, 19.0
13.60000, 18.0
13.62000, 23.0
13.64000, 20.0
13.66000, 18.0
13.68000, 30.0
13.70000, 21.0
13.72000, 14.0
13.74000, 21.0
13.76000, 15.0
13.78000, 16.0
13.80000, 18.0
13.82000, 20.0
13.84000, 10.0
13.86000, 15.0
13.88000, 27.0
13.90000, 14.0
13.92000, 18.0
13.94000, 27.0
13.96000, 15.0
13.98000, 17.0
14.00000, 19.0
14.02000, 13.0
14.04000, 12.0
14.06000, 13.0
14.08000, 15.0
14.10000, 17.0
14.12000, 14.0
14.14000, 19.0
14.16000, 12.0
14.18000, 23.0
14.20000, 22.0
14.22000, 10.0
14.24000, 19.0
14.26000, 15.0
14.28000, 14.0
14.30000, 13.0
14.32000, 17.0
14.34000, 21.0
14.36000, 14.0
14.38000, 11.0
14.40000, 18.0
14.42000, 17.0
14.44000, 16.0
14.46000, 19.0
14.48000, 16.0
14.50000, 12.0
14.52000, 16.0
14.54000, 18.0
14.56000, 11.0
14.58000, 11.0
14.60000, 15.0
14.62000, 14.0
14.64000, 13.0
14.66000, 7.0
14.68000, 10.0
14.70000, 14.0
14.72000, 12.0
14.74000, 13.0
14.76000, 16.0
14.78000, 10.0
14.80000, 12.0
14.82000, 8.0
14.84000, 14.0
14.86000, 16.0
14.88000, 16.0
14.90000, 16.0
14.92000, 15.0
14.94000, 17.0
14.96000, 13.0
14.98000, 12.0
15.00000, 9.0
15.02000, 12.0
15.04000, 8.0
15.06000, 13.0
15.08000, 12.0
15.10000, 12.0
15.12000, 14.0
15.14000, 5.0
15.16000, 17.0
15.18000, 13.0
15.20000, 15.0
15.22000, 13.0
15.24000, 12.0
15.26000, 19.0
15.28000, 16.0
15.30000, 7.0
15.32000, 12.0
15.34000, 19.0
15.36000, 7.0
15.38000, 11.0
15.40000, 10.0
15.42000, 14.0
15.44000, 19.0
15.46000, 6.0
15.48000, 6.0
15.50000, 7.0
15.52000, 9.0
15.54000, 12.0
15.56000, 9.0
15.58000, 10.0
15.60000, 12.0
15.62000, 7.0
15.64000, 8.0
15.66000, 13.0
15.68000, 10.0
15.70000, 13.0
15.72000, 13.0
15.74000, 10.0
15.76000, 10.0
15.78000, 8.0
15.80000, 11.0
15.82000, 7.0
15.84000, 6.0
15.86000, 9.0
15.88000, 5.0
15.90000, 7.0
15.92000, 8.0
15.94000, 8.0
15.96000, 11.0
15.98000, 7.0
16.00000, 8.0
16.02000, 11.0
16.04000, 8.0
16.06000, 6.0
16.08000, 7.0
16.10000, 12.0
16.12000, 11.0
16.14000, 13.0
16.16000, 7.0
16.18000, 11.0
16.20000, 8.0
16.22000, 11.0
16.24000, 6.0
16.26000, 6.0
16.28000, 10.0
16.30000, 9.0
16.32000, 9.0
16.34000, 3.0
16.36000, 9.0
16.38000, 8.0
16.40000, 7.0
16.42000, 4.0
16.44000, 5.0
16.46000, 8.0
16.48000, 8.0
16.50000, 6.0
16.52000, 6.0
16.54000, 10.0
16.56000, 11.0
16.58000, 8.0
16.60000, 5.0
16.62000, 8.0
16.64000, 4.0
16.66000, 9.0
16.68000, 8.0
16.70000, 1.0
16.72000, 2.0
16.74000, 11.0
16.76000, 6.0
16.78000, 1.0
16.80000, 7.0
16.82000, 2.0
16.84000, 5.0
16.86000, 8.0
16.88000, 5.0
16.90000, 4.0
16.92000, 6.0
16.94000, 4.0
16.96000, 2.0
16.98000, 5.0
17.00000, 7.0
17.02000, 4.0
17.04000, 8.0
17.06000, 4.0
17.08000, 7.0
17.10000, 6.0
17.12000, 6.0
17.14000, 3.0
17.16000, 2.0
17.18000, 8.0
17.20000, 5.0
17.22000, 5.0
17.24000, 5.0
17.26000, 8.0
17.28000, 2.0
17.30000, 4.0
17.32000, 7.0
17.34000, 4.0
17.36000, 6.0
17.38000, 4.0
17.40000, 10.0
17.42000, 8.0
17.44000, 14.0
17.46000, 3.0
17.48000, 1.0
17.50000, 5.0
17.52000, 1.0
17.54000, 3.0
17.56000, 3.0
17.58000, 3.0
17.60000, 6.0
17.62000, 7.0
17.64000, 4.0
17.66000, 2.0
17.68000, 3.0
17.70000, 5.0
17.72000, 5.0
17.74000, 6.0
17.76000, 2.0
17.78000, 8.0
17.80000, 2.0
17.82000, 4.0
17.84000, 3.0
17.86000, 7.0
17.88000, 1.0
17.90000, 6.0
17.92000, 7.0
17.94000, 1.0
17.96000, 2.0
17.98000, 4.0
18.00000, 0.0
18.02000, 5.0
18.04000, 5.0
18.06000, 2.0
18.08000, 4.0
18.10000, 3.0
18.12000, 3.0
18.14000, 2.0
18.16000, 1.0
18.18000, 4.0
18.20000, 2.0
18.22000, 3.0
18.24000, 1.0
18.26000, 2.0
18.28000, 5.0
18.30000, 2.0
18.32000, 1.0
18.34000, 2.0
18.36000, 1.0
18.38000, 2.0
18.40000, 2.0
18.42000, 4.0
18.44000, 7.0
18.46000, 2.0
18.48000, 1.0
18.50000, 1.0
18.52000, 1.0
18.54000, 2.0
18.56000, 4.0
18.58000, 3.0
18.60000, 2.0
18.62000, 3.0
18.64000, 1.0
18.66000, 3.0
18.68000, 2.0
18.70000, 0.0
18.72000, 5.0
18.74000, 1.0
18.76000, 2.0
18.78000, 3.0
18.80000, 0.0
18.82000, 3.0
18.84000, 2.0
18.86000, 2.0
18.88000, 2.0
18.90000, 3.0
18.92000, 1.0
18.94000, 0.0
18.96000, 0.0
18.98000, 1.0
19.00000, 0.0
19.02000, 2.0
19.04000, 2.0
19.06000, 1.0
19.08000, 0.0
19.10000, 2.0
19.12000, 1.0
19.14000, 2.0
19.16000, 2.0
19.18000, 2.0
19.20000, 0.0
19.22000, 3.0
19.24000, 2.0
19.26000, 1.0
19.28000, 2.0
19.30000, 2.0
19.32000, 2.0
19.34000, 1.0
19.36000, 0.0
19.38000, 0.0
19.40000, 1.0
19.42000, 2.0
19.44000, 1.0
19.46000, 0.0
19.48000, 2.0
19.50000, 2.0
19.52000, 0.0
19.54000, 0.0
19.56000, 0.0
19.58000, 1.0
19.60000, 2.0
19.62000, 0.0
19.64000, 1.0
19.66000, 0.0
19.68000, 0.0
19.70000, 0.0
19.72000, 0.0
19.74000, 1.0
19.76000, 0.0
19.78000, 2.0
19.80000, 0.0
19.82000, 0.0
19.84000, 0.0
19.86000, 0.0
19.88000, 1.0
19.90000, 1.0
19.92000, 1.0
19.94000, 1.0
19.96000, 0.0
19.98000, 0.0
20.00000, 0.0
20.02000, 0.0
20.04000, 0.0
20.06000, 0.0
20.08000, 1.0
20.10000, 0.0
20.12000, 0.0
20.14000, 0.0
20.16000, 0.0
20.18000, 0.0
20.20000, 0.0
20.22000, 0.0
20.24000, 0.0
20.26000, 0.0
20.27000, 0.0
#ENDOFDATA   :