File: SEM/CL10_D 200 Spectrum 4.txt
#FORMAT      : EMSA/MAS Spectral Data File
#VERSION     : 1.0
#TITLE       : Spectrum 4
#DATE        : 20-DEC-2021
#TIME        : 13:40
#OWNER       :
#NPOINTS     : 2048.0
#NCOLUMNS    : 1.0
#XUNITS      : keV
#YUNITS      : counts
#DATATYPE    : XY
#XPERCHAN    : 0.01
#OFFSET      : -0.2
#SIGNALTYPE  : EDS
#CHOFFSET    : 20.0
#LIVETIME    : 40.0
#REALTIME    : 43.3191
#BEAMKV      : 20.0
#MAGCAM      : 500.0
#XTILTSTGE   : 0.0
#AZIMANGLE   : 0.0
#ELEVANGLE   : 35.0
#XPOSITION mm: -7.3128
#YPOSITION mm: 12.7039
#ZPOSITION mm: 10.0000
##OXINSTPT   : 4
##OXINSTSTROB: 43.60
##OXINSTNDET : 1
##OXINSTELEMS: 6,25,26,8,14,24,29,23,16
##OXINSTLABEL: 6, 0.277, C
##OXINSTLABEL: 25, 5.899, Mn
##OXINSTLABEL: 25, 6.490, Mn
##OXINSTLABEL: 25, 0.636, Mn
##OXINSTLABEL: 25, 0.556, Mn
##OXINSTLABEL: 26, 6.404, Fe
##OXINSTLABEL: 26, 7.058, Fe
##OXINSTLABEL: 26, 0.703, Fe
##OXINSTLABEL: 26, 0.615, Fe
##OXINSTLABEL: 8, 0.525, O
##OXINSTLABEL: 14, 1.740, Si
##OXINSTLABEL: 24, 5.415, Cr
##OXINSTLABEL: 24, 5.947, Cr
##OXINSTLABEL: 24, 0.573, Cr
##OXINSTLABEL: 24, 0.500, Cr
##OXINSTLABEL: 29, 8.048, Cu
##OXINSTLABEL: 29, 8.905, Cu
##OXINSTLABEL: 29, 0.930, Cu
##OXINSTLABEL: 29, 0.832, Cu
##OXINSTLABEL: 29, 0.811, Cu
##OXINSTLABEL: 23, 4.952, V
##OXINSTLABEL: 23, 5.427, V
##OXINSTLABEL: 23, 0.511, V
##OXINSTLABEL: 23, 0.446, V
##OXINSTLABEL: 16, 2.308, S
##OXINSTLABEL: 16, 2.464, S
#SPECTRUM    : Spectral Data Starts Here
-0.20000, 0.0
-0.18000, 0.0
-0.16000, 0.0
-0.14000, 0.0
-0.12000, 0.0
-0.10000, 0.0
-0.08000, 0.0
-0.06000, 0.0
-0.04000, 40.0
-0.02000, 347.0
0.00000, 1016.0
0.02000, 1601.0
0.04000, 1605.0
0.06000, 918.0
0.08000, 334.0
0.10000, 192.0
0.12000, 185.0
0.14000, 192.0
0.16000, 192.0
0.18000, 223.0
0.20000, 245.0
0.22000, 433.0
0.24000, 1032.0
0.26000, 2128.0
0.28000, 2446.0
0.30000, 1421.0
0.32000, 479.0
0.34000, 273.0
0.36000, 310.0
0.38000, 384.0
0.40000, 455.0
0.42000, 466.0
0.44000, 423.0
0.46000, 537.0
0.48000, 778.0
0.50000, 1253.0
0.52000, 1595.0
0.54000, 1627.0
0.56000, 1531.0
0.58000, 2502.0
0.60000, 4383.0
0.62000, 5290.0
0.64000, 4547.0
0.66000, 5200.0
0.68000, 9191.0
0.70000, 12985.0
0.72000, 11401.0
0.74000, 5859.0
0.76000, 1938.0
0.78000, 702.0
0.80000, 371.0
0.82000, 344.0
0.84000, 275.0
0.86000, 261.0
0.88000, 275.0
0.90000, 267.0
0.92000, 294.0
0.94000, 306.0
0.96000, 314.0
0.98000, 291.0
1.00000, 347.0
1.02000, 355.0
1.04000, 338.0
1.06000, 358.0
1.08000, 339.0
1.10000, 345.0
1.12000, 348.0
1.14000, 379.0
1.16000, 373.0
1.18000, 358.0
1.20000, 383.0
1.22000, 436.0
1.24000, 394.0
1.26000, 454.0
1.28000, 440.0
1.30000, 416.0
1.32000, 459.0
1.34000, 454.0
1.36000, 435.0
1.38000, 442.0
1.40000, 461.0
1.42000, 464.0
1.44000, 494.0
1.46000, 461.0
1.48000, 450.0
1.50000, 470.0
1.52000, 505.0
1.54000, 493.0
1.56000, 445.0
1.58000, 477.0
1.60000, 484.0
1.62000, 481.0
1.64000, 482.0
1.66000, 509.0
1.68000, 535.0
1.70000, 573.0
1.72000, 719.0
1.74000, 669.0
1.76000, 661.0
1.78000, 584.0
1.80000, 546.0
1.82000, 531.0
1.84000, 544.0
1.86000, 491.0
1.88000, 500.0
1.90000, 514.0
1.92000, 508.0
1.94000, 474.0
1.96000, 498.0
1.98000, 490.0
2.00000, 526.0
2.02000, 522.0
2.04000, 544.0
2.06000, 532.0
2.08000, 507.0
2.10000, 521.0
2.12000, 513.0
2.14000, 540.0
2.16000, 512.0
2.18000, 562.0
2.20000, 545.0
2.22000, 538.0
2.24000, 536.0
2.26000, 603.0
2.28000, 573.0
2.30000, 610.0
2.32000, 620.0
2.34000, 625.0
2.36000, 564.0
2.38000, 573.0
2.40000, 549.0
2.42000, 544.0
2.44000, 546.0
2.46000, 535.0
2.48000, 529.0
2.50000, 508.0
2.52000, 569.0
2.54000, 539.0
2.56000, 507.0
2.58000, 529.0
2.60000, 507.0
2.62000, 519.0
2.64000, 520.0
2.66000, 500.0
2.68000, 493.0
2.70000, 488.0
2.72000, 503.0
2.74000, 505.0
2.76000, 502.0
2.78000, 503.0
2.80000, 514.0
2.82000, 481.0
2.84000, 456.0
2.86000, 512.0
2.88000, 500.0
2.90000, 500.0
2.92000, 495.0
2.94000, 495.0
2.96000, 513.0
2.98000, 514.0
3.00000, 534.0
3.02000, 500.0
3.04000, 479.0
3.06000, 498.0
3.08000, 461.0
3.10000, 511.0
3.12000, 503.0
3.14000, 467.0
3.16000, 461.0
3.18000, 486.0
3.20000, 514.0
3.22000, 468.0
3.24000, 472.0
3.26000, 463.0
3.28000, 495.0
3.30000, 471.0
3.32000, 472.0
3.34000, 442.0
3.36000, 499.0
3.38000, 459.0
3.40000, 436.0
3.42000, 465.0
3.44000, 425.0
3.46000, 490.0
3.48000, 447.0
3.50000, 442.0
3.52000, 457.0
3.54000, 475.0
3.56000, 432.0
3.58000, 439.0
3.60000, 448.0
3.62000, 431.0
3.64000, 434.0
3.66000, 449.0
3.68000, 465.0
3.70000, 470.0
3.72000, 454.0
3.74000, 410.0
3.76000, 441.0
3.78000, 455.0
3.80000, 407.0
3.82000, 392.0
3.84000, 428.0
3.86000, 414.0
3.88000, 421.0
3.90000, 427.0
3.92000, 400.0
3.94000, 392.0
3.96000, 406.0
3.98000, 436.0
4.00000, 391.0
4.02000, 389.0
4.04000, 436.0
4.06000, 397.0
4.08000, 396.0
4.10000, 423.0
4.12000, 375.0
4.14000, 379.0
4.16000, 391.0
4.18000, 403.0
4.20000, 372.0
4.22000, 392.0
4.24000, 381.0
4.26000, 388.0
4.28000, 368.0
4.30000, 391.0
4.32000, 365.0
4.34000, 381.0
4.36000, 385.0
4.38000, 401.0
4.40000, 386.0
4.42000, 359.0
4.44000, 348.0
4.46000, 363.0
4.48000, 382.0
4.50000, 374.0
4.52000, 372.0
4.54000, 384.0
4.56000, 350.0
4.58000, 409.0
4.60000, 410.0
4.62000, 409.0
4.64000, 447.0
4.66000, 436.0
4.68000, 416.0
4.70000, 404.0
4.72000, 392.0
4.74000, 344.0
4.76000, 361.0
4.78000, 362.0
4.80000, 364.0
4.82000, 331.0
4.84000, 357.0
4.86000, 334.0
4.88000, 361.0
4.90000, 372.0
4.92000, 379.0
4.94000, 375.0
4.96000, 382.0
4.98000, 383.0
5.00000, 343.0
5.02000, 353.0
5.04000, 363.0
5.06000, 328.0
5.08000, 297.0
5.10000, 322.0
5.12000, 352.0
5.14000, 326.0
5.16000, 319.0
5.18000, 314.0
5.20000, 329.0
5.22000, 324.0
5.24000, 336.0
5.26000, 316.0
5.28000, 328.0
5.30000, 332.0
5.32000, 306.0
5.34000, 334.0
5.36000, 349.0
5.38000, 407.0
5.40000, 408.0
5.42000, 385.0
5.44000, 403.0
5.46000, 372.0
5.48000, 351.0
5.50000, 343.0
5.52000, 317.0
5.54000, 314.0
5.56000, 301.0
5.58000, 279.0
5.60000, 304.0
5.62000, 294.0
5.64000, 282.0
5.66000, 301.0
5.68000, 278.0
5.70000, 272.0
5.72000, 281.0
5.74000, 268.0
5.76000, 325.0
5.78000, 320.0
5.80000, 329.0
5.82000, 415.0
5.84000, 517.0
5.86000, 627.0
5.88000, 701.0
5.90000, 697.0
5.92000, 646.0
5.94000, 589.0
5.96000, 484.0
5.98000, 419.0
6.00000, 329.0
6.02000, 321.0
6.04000, 309.0
6.06000, 283.0
6.08000, 285.0
6.10000, 278.0
6.12000, 309.0
6.14000, 304.0
6.16000, 294.0
6.18000, 307.0
6.20000, 349.0
6.22000, 472.0
6.24000, 735.0
6.26000, 1300.0
6.28000, 2553.0
6.30000, 4943.0
6.32000, 8433.0
6.34000, 12870.0
6.36000, 17681.0
6.38000, 21287.0
6.40000, 22544.0
6.42000, 21213.0
6.44000, 17389.0
6.46000, 12943.0
6.48000, 8399.0
6.50000, 5036.0
6.52000, 2604.0
6.54000, 1271.0
6.56000, 660.0
6.58000, 396.0
6.60000, 318.0
6.62000, 270.0
6.64000, 263.0
6.66000, 271.0
6.68000, 265.0
6.70000, 245.0
6.72000, 279.0
6.74000, 253.0
6.76000, 252.0
6.78000, 266.0
6.80000, 249.0
6.82000, 245.0
6.84000, 277.0
6.86000, 289.0
6.88000, 341.0
6.90000, 383.0
6.92000, 502.0
6.94000, 721.0
6.96000, 1071.0
6.98000, 1600.0
7.00000, 2085.0
7.02000, 2605.0
7.04000, 2981.0
7.06000, 2998.0
7.08000, 2906.0
7.10000, 2370.0
7.12000, 1724.0
7.14000, 1210.0
7.16000, 778.0
7.18000, 466.0
7.20000, 327.0
7.22000, 219.0
7.24000, 181.0
7.26000, 163.0
7.28000, 143.0
7.30000, 144.0
7.32000, 141.0
7.34000, 145.0
7.36000, 134.0
7.38000, 152.0
7.40000, 161.0
7.42000, 126.0
7.44000, 159.0
7.46000, 155.0
7.48000, 152.0
7.50000, 163.0
7.52000, 140.0
7.54000, 159.0
7.56000, 144.0
7.58000, 137.0
7.60000, 156.0
7.62000, 156.0
7.64000, 138.0
7.66000, 131.0
7.68000, 140.0
7.70000, 150.0
7.72000, 149.0
7.74000, 148.0
7.76000, 127.0
7.78000, 143.0
7.80000, 139.0
7.82000, 126.0
7.84000, 158.0
7.86000, 142.0
7.88000, 137.0
7.90000, 123.0
7.92000, 152.0
7.94000, 123.0
7.96000, 153.0
7.98000, 144.0
8.00000, 162.0
8.02000, 197.0
8.04000, 171.0
8.06000, 176.0
8.08000, 159.0
8.10000, 146.0
8.12000, 143.0
8.14000, 153.0
8.16000, 133.0
8.18000, 144.0
8.20000, 130.0
8.22000, 120.0
8.24000, 137.0
8.26000, 130.0
8.28000, 127.0
8.30000, 119.0
8.32000, 135.0
8.34000, 127.0
8.36000, 141.0
8.38000, 148.0
8.40000, 109.0
8.42000, 117.0
8.44000, 124.0
8.46000, 128.0
8.48000, 121.0
8.50000, 139.0
8.52000, 126.0
8.54000, 124.0
8.56000, 132.0
8.58000, 127.0
8.60000, 119.0
8.62000, 143.0
8.64000, 113.0
8.66000, 111.0
8.68000, 134.0
8.70000, 127.0
8.72000, 122.0
8.74000, 105.0
8.76000, 138.0
8.78000, 126.0
8.80000, 139.0
8.82000, 125.0
8.84000, 116.0
8.86000, 114.0
8.88000, 119.0
8.90000, 118.0
8.92000, 127.0
8.94000, 130.0
8.96000, 111.0
8.98000, 95.0
9.00000, 128.0
9.02000, 105.0
9.04000, 111.0
9.06000, 112.0
9.08000, 123.0
9.10000, 114.0
9.12000, 111.0
9.14000, 113.0
9.16000, 135.0
9.18000, 118.0
9.20000, 120.0
9.22000, 100.0
9.24000, 112.0
9.26000, 111.0
9.28000, 113.0
9.30000, 99.0
9.32000, 136.0
9.34000, 125.0
9.36000, 98.0
9.38000, 115.0
9.40000, 104.0
9.42000, 93.0
9.44000, 116.0
9.46000, 117.0
9.48000, 121.0
9.50000, 106.0
9.52000, 120.0
9.54000, 99.0
9.56000, 88.0
9.58000, 83.0
9.60000, 96.0
9.62000, 90.0
9.64000, 113.0
9.66000, 91.0
9.68000, 102.0
9.70000, 108.0
9.72000, 106.0
9.74000, 98.0
9.76000, 99.0
9.78000, 112.0
9.80000, 106.0
9.82000, 107.0
9.84000, 105.0
9.86000, 104.0
9.88000, 101.0
9.90000, 104.0
9.92000, 102.0
9.94000, 97.0
9.96000, 118.0
9.98000, 105.0
10.00000, 100.0
10.02000, 92.0
10.04000, 93.0
10.06000, 99.0
10.08000, 99.0
10.10000, 114.0
10.12000, 100.0
10.14000, 100.0
10.16000, 91.0
10.18000, 87.0
10.20000, 113.0
10.22000, 89.0
10.24000, 106.0
10.26000, 101.0
10.28000, 97.0
10.30000, 107.0
10.32000, 96.0
10.34000, 92.0
10.36000, 89.0
10.38000, 98.0
10.40000, 90.0
10.42000, 92.0
10.44000, 98.0
10.46000, 93.0
10.48000, 113.0
10.50000, 94.0
10.52000, 83.0
10.54000, 94.0
10.56000, 98.0
10.58000, 90.0
10.60000, 78.0
10.62000, 75.0
10.64000, 83.0
10.66000, 90.0
10.68000, 79.0
10.70000, 84.0
10.72000, 97.0
10.74000, 85.0
10.76000, 77.0
10.78000, 98.0
10.80000, 81.0
10.82000, 79.0
10.84000, 87.0
10.86000, 84.0
10.88000, 79.0
10.90000, 88.0
10.92000, 89.0
10.94000, 82.0
10.96000, 73.0
10.98000, 82.0
11.00000, 63.0
11.02000, 90.0
11.04000, 83.0
11.06000, 86.0
11.08000, 82.0
11.10000, 75.0
11.12000, 85.0
11.14000, 84.0
11.16000, 95.0
11.18000, 65.0
11.20000, 71.0
11.22000, 91.0
11.24000, 67.0
11.26000, 78.0
11.28000, 80.0
11.30000, 83.0
11.32000, 70.0
11.34000, 65.0
11.36000, 72.0
11.38000, 65.0
11.40000, 74.0
11.42000, 82.0
11.44000, 74.0
11.46000, 81.0
11.48000, 68.0
11.50000, 86.0
11.52000, 73.0
11.54000, 74.0
11.56000, 63.0
11.58000, 82.0
11.60000, 79.0
11.62000, 74.0
11.64000, 77.0
11.66000, 63.0
11.68000, 68.0
11.70000, 87.0
11.72000, 74.0
11.74000, 43.0
11.76000, 75.0
11.78000, 72.0
11.80000, 70.0
11.82000, 66.0
11.84000, 64.0
11.86000, 67.0
11.88000, 60.0
11.90000, 50.0
11.92000, 41.0
11.94000, 63.0
11.96000, 64.0
11.98000, 63.0
12.00000, 66.0
12.02000, 54.0
12.04000, 53.0
12.06000, 68.0
12.08000, 65.0
12.10000, 68.0
12.12000, 76.0
12.14000, 64.0
12.16000, 63.0
12.18000, 79.0
12.20000, 55.0
12.22000, 61.0
12.24000, 65.0
12.26000, 70.0
12.28000, 60.0
12.30000, 58.0
12.32000, 45.0
12.34000, 65.0
12.36000, 54.0
12.38000, 49.0
12.40000, 66.0
12.42000, 62.0
12.44000, 54.0
12.46000, 63.0
12.48000, 49.0
12.50000, 65.0
12.52000, 53.0
12.54000, 46.0
12.56000, 42.0
12.58000, 52.0
12.60000, 50.0
12.62000, 51.0
12.64000, 59.0
12.66000, 74.0
12.68000, 58.0
12.70000, 63.0
12.72000, 78.0
12.74000, 70.0
12.76000, 87.0
12.78000, 97.0
12.80000, 86.0
12.82000, 76.0
12.84000, 88.0
12.86000, 74.0
12.88000, 81.0
12.90000, 71.0
12.92000, 71.0
12.94000, 52.0
12.96000, 55.0
12.98000, 55.0
13.00000, 59.0
13.02000, 66.0
13.04000, 51.0
13.06000, 54.0
13.08000, 50.0
13.10000, 55.0
13.12000, 50.0
13.14000, 42.0
13.16000, 43.0
13.18000, 48.0
13.20000, 42.0
13.22000, 55.0
13.24000, 47.0
13.26000, 39.0
13.28000, 40.0
13.30000, 51.0
13.32000, 53.0
13.34000, 46.0
13.36000, 49.0
13.38000, 59.0
13.40000, 51.0
13.42000, 51.0
13.44000, 53.0
13.46000, 52.0
13.48000, 58.0
13.50000, 46.0
13.52000, 41.0
13.54000, 36.0
13.56000, 45.0
13.58000, 43.0
13.60000, 52.0
13.62000, 41.0
13.64000, 31.0
13.66000, 48.0
13.68000, 41.0
13.70000, 45.0
13.72000, 48.0
13.74000, 46.0
13.76000, 35.0
13.78000, 40.0
13.80000, 59.0
13.82000, 35.0
13.84000, 40.0
13.86000, 38.0
13.88000, 33.0
13.90000, 37.0
13.92000, 35.0
13.94000, 28.0
13.96000, 34.0
13.98000, 37.0
14.00000, 34.0
14.02000, 28.0
14.04000, 34.0
14.06000, 42.0
14.08000, 44.0
14.10000, 43.0
14.12000, 35.0
14.14000, 46.0
14.16000, 31.0
14.18000, 46.0
14.20000, 32.0
14.22000, 42.0
14.24000, 41.0
14.26000, 30.0
14.28000, 24.0
14.30000, 39.0
14.32000, 29.0
14.34000, 35.0
14.36000, 35.0
14.38000, 43.0
14.40000, 32.0
14.42000, 30.0
14.44000, 31.0
14.46000, 48.0
14.48000, 28.0
14.50000, 31.0
14.52000, 28.0
14.54000, 28.0
14.56000, 25.0
14.58000, 32.0
14.60000, 31.0
14.62000, 39.0
14.64000, 37.0
14.66000, 37.0
14.68000, 37.0
14.70000, 20.0
14.72000, 23.0
14.74000, 32.0
14.76000, 25.0
14.78000, 24.0
14.80000, 33.0
14.82000, 23.0
14.84000, 30.0
14.86000, 22.0
14.88000, 26.0
14.90000, 31.0
14.92000, 26.0
14.94000, 33.0
14.96000, 24.0
14.98000, 23.0
15.00000, 33.0
15.02000, 17.0
15.04000, 19.0
15.06000, 17.0
15.08000, 30.0
15.10000, 21.0
15.12000, 28.0
15.14000, 24.0
15.16000, 35.0
15.18000, 28.0
15.20000, 23.0
15.22000, 25.0
15.24000, 20.0
15.26000, 21.0
15.28000, 25.0
15.30000, 18.0
15.32000, 17.0
15.34000, 29.0
15.36000, 19.0
15.38000, 26.0
15.40000, 20.0
15.42000, 20.0
15.44000, 21.0
15.46000, 29.0
15.48000, 35.0
15.50000, 22.0
15.52000, 24.0
15.54000, 23.0
15.56000, 22.0
15.58000, 16.0
15.60000, 17.0
15.62000, 16.0
15.64000, 15.0
15.66000, 20.0
15.68000, 25.0
15.70000, 13.0
15.72000, 20.0
15.74000, 20.0
15.76000, 20.0
15.78000, 12.0
15.80000, 25.0
15.82000, 23.0
15.84000, 17.0
15.86000, 23.0
15.88000, 21.0
15.90000, 27.0
15.92000, 15.0
15.94000, 17.0
15.96000, 15.0
15.98000, 18.0
16.00000, 9.0
16.02000, 25.0
16.04000, 11.0
16.06000, 21.0
16.08000, 19.0
16.10000, 13.0
16.12000, 12.0
16.14000, 13.0
16.16000, 19.0
16.18000, 27.0
16.20000, 14.0
16.22000, 17.0
16.24000, 14.0
16.26000, 7.0
16.28000, 19.0
16.30000, 13.0
16.32000, 14.0
16.34000, 19.0
16.36000, 21.0
16.38000, 19.0
16.40000, 20.0
16.42000, 9.0
16.44000, 10.0
16.46000, 24.0
16.48000, 18.0
16.50000, 14.0
16.52000, 15.0
16.54000, 10.0
16.56000, 20.0
16.58000, 17.0
16.60000, 12.0
16.62000, 13.0
16.64000, 10.0
16.66000, 13.0
16.68000, 12.0
16.70000, 11.0
16.72000, 13.0
16.74000, 9.0
16.76000, 10.0
16.78000, 7.0
16.80000, 11.0
16.82000, 11.0
16.84000, 13.0
16.86000, 9.0
16.88000, 11.0
16.90000, 9.0
16.92000, 12.0
16.94000, 12.0
16.96000, 16.0
16.98000, 13.0
17.00000, 9.0
17.02000, 6.0
17.04000, 11.0
17.06000, 11.0
17.08000, 14.0
17.10000, 10.0
17.12000, 6.0
17.14000, 12.0
17.16000, 17.0
17.18000, 8.0
17.20000, 11.0
17.22000, 7.0
17.24000, 9.0
17.26000, 8.0
17.28000, 13.0
17.30000, 14.0
17.32000, 6.0
17.34000, 10.0
17.36000, 10.0
17.38000, 11.0
17.40000, 5.0
17.42000, 7.0
17.44000, 10.0
17.46000, 9.0
17.48000, 7.0
17.50000, 7.0
17.52000, 8.0
17.54000, 9.0
17.56000, 7.0
17.58000, 11.0
17.60000, 6.0
17.62000, 8.0
17.64000, 11.0
17.66000, 5.0
17.68000, 7.0
17.70000, 16.0
17.72000, 13.0
17.74000, 8.0
17.76000, 8.0
17.78000, 8.0
17.80000, 6.0
17.82000, 7.0
17.84000, 6.0
17.86000, 3.0
17.88000, 6.0
17.90000, 5.0
17.92000, 11.0
17.94000, 7.0
17.96000, 8.0
17.98000, 6.0
18.00000, 6.0
18.02000, 6.0
18.04000, 3.0
18.06000, 5.0
18.08000, 7.0
18.10000, 9.0
18.12000, 7.0
18.14000, 9.0
18.16000, 8.0
18.18000, 9.0
18.20000, 5.0
18.22000, 4.0
18.24000, 3.0
18.26000, 8.0
18.28000, 4.0
18.30000, 9.0
18.32000, 6.0
18.34000, 6.0
18.36000, 3.0
18.38000, 5.0
18.40000, 5.0
18.42000, 7.0
18.44000, 5.0
18.46000, 3.0
18.48000, 6.0
18.50000, 3.0
18.52000, 9.0
18.54000, 3.0
18.56000, 7.0
18.58000, 4.0
18.60000, 3.0
18.62000, 7.0
18.64000, 2.0
18.66000, 3.0
18.68000, 4.0
18.70000, 1.0
18.72000, 2.0
18.74000, 4.0
18.76000, 5.0
18.78000, 4.0
18.80000, 3.0
18.82000, 3.0
18.84000, 0.0
18.86000, 4.0
18.88000, 2.0
18.90000, 4.0
18.92000, 2.0
18.94000, 4.0
18.96000, 5.0
18.98000, 2.0
19.00000, 3.0
19.02000, 2.0
19.04000, 1.0
19.06000, 2.0
19.08000, 3.0
19.10000, 4.0
19.12000, 3.0
19.14000, 4.0
19.16000, 2.0
19.18000, 1.0
19.20000, 3.0
19.22000, 1.0
19.24000, 2.0
19.26000, 0.0
19.28000, 3.0
19.30000, 2.0
19.32000, 2.0
19.34000, 0.0
19.36000, 5.0
19.38000, 2.0
19.40000, 1.0
19.42000, 3.0
19.44000, 2.0
19.46000, 1.0
19.48000, 0.0
19.50000, 1.0
19.52000, 4.0
19.54000, 0.0
19.56000, 1.0
19.58000, 3.0
19.60000, 1.0
19.62000, 1.0
19.64000, 1.0
19.66000, 5.0
19.68000, 0.0
19.70000, 0.0
19.72000, 2.0
19.74000, 0.0
19.76000, 1.0
19.78000, 0.0
19.80000, 0.0
19.82000, 1.0
19.84000, 0.0
19.86000, 0.0
19.88000, 2.0
19.90000, 1.0
19.92000, 1.0
19.94000, 0.0
19.96000, 0.0
19.98000, 0.0
20.00000, 0.0
20.02000, 1.0
20.04000, 0.0
20.06000, 1.0
20.08000, 0.0
20.10000, 1.0
20.12000, 0.0
20.14000, 1.0
20.16000, 0.0
20.18000, 0.0
20.20000, 1.0
20.22000, 0.0
20.24000, 1.0
20.26000, 1.0
20.27000, 0.0
#ENDOFDATA   :