File: SEM/CL20-D 100 Spectrum 2.txt
#FORMAT      : EMSA/MAS Spectral Data File
#VERSION     : 1.0
#TITLE       : Spectrum 2
#DATE        : 20-DEC-2021
#TIME        : 12:55
#OWNER       :
#NPOINTS     : 2048.0
#NCOLUMNS    : 1.0
#XUNITS      : keV
#YUNITS      : counts
#DATATYPE    : XY
#XPERCHAN    : 0.01
#OFFSET      : -0.2
#SIGNALTYPE  : EDS
#CHOFFSET    : 20.0
#LIVETIME    : 40.0
#REALTIME    : 43.4763
#BEAMKV      : 20.0
#MAGCAM      : 500.0
#XTILTSTGE   : 0.0
#AZIMANGLE   : 0.0
#ELEVANGLE   : 35.0
#XPOSITION mm: 3.4877
#YPOSITION mm: 7.7600
#ZPOSITION mm: 6.0000
##OXINSTPT   : 4
##OXINSTSTROB: 43.53
##OXINSTNDET : 1
##OXINSTELEMS: 6,25,26,14,24,8,23,16
##OXINSTLABEL: 6, 0.277, C
##OXINSTLABEL: 25, 5.899, Mn
##OXINSTLABEL: 25, 6.490, Mn
##OXINSTLABEL: 25, 0.636, Mn
##OXINSTLABEL: 25, 0.556, Mn
##OXINSTLABEL: 26, 6.404, Fe
##OXINSTLABEL: 26, 7.058, Fe
##OXINSTLABEL: 26, 0.703, Fe
##OXINSTLABEL: 26, 0.615, Fe
##OXINSTLABEL: 14, 1.740, Si
##OXINSTLABEL: 24, 5.415, Cr
##OXINSTLABEL: 24, 5.947, Cr
##OXINSTLABEL: 24, 0.573, Cr
##OXINSTLABEL: 24, 0.500, Cr
##OXINSTLABEL: 8, 0.525, O
##OXINSTLABEL: 23, 4.952, V
##OXINSTLABEL: 23, 5.427, V
##OXINSTLABEL: 23, 0.511, V
##OXINSTLABEL: 23, 0.446, V
##OXINSTLABEL: 16, 2.308, S
##OXINSTLABEL: 16, 2.464, S
#SPECTRUM    : Spectral Data Starts Here
-0.20000, 0.0
-0.18000, 0.0
-0.16000, 0.0
-0.14000, 0.0
-0.12000, 0.0
-0.10000, 0.0
-0.08000, 0.0
-0.06000, 3.0
-0.04000, 40.0
-0.02000, 321.0
0.00000, 1048.0
0.02000, 1511.0
0.04000, 1561.0
0.06000, 878.0
0.08000, 354.0
0.10000, 255.0
0.12000, 175.0
0.14000, 197.0
0.16000, 221.0
0.18000, 216.0
0.20000, 262.0
0.22000, 382.0
0.24000, 836.0
0.26000, 1555.0
0.28000, 1664.0
0.30000, 964.0
0.32000, 406.0
0.34000, 271.0
0.36000, 309.0
0.38000, 390.0
0.40000, 412.0
0.42000, 451.0
0.44000, 535.0
0.46000, 640.0
0.48000, 866.0
0.50000, 1204.0
0.52000, 1534.0
0.54000, 1463.0
0.56000, 1592.0
0.58000, 2857.0
0.60000, 4973.0
0.62000, 5842.0
0.64000, 5159.0
0.66000, 5800.0
0.68000, 10309.0
0.70000, 14647.0
0.72000, 12701.0
0.74000, 6428.0
0.76000, 2150.0
0.78000, 734.0
0.80000, 469.0
0.82000, 342.0
0.84000, 321.0
0.86000, 282.0
0.88000, 290.0
0.90000, 288.0
0.92000, 322.0
0.94000, 342.0
0.96000, 342.0
0.98000, 352.0
1.00000, 350.0
1.02000, 361.0
1.04000, 366.0
1.06000, 397.0
1.08000, 390.0
1.10000, 408.0
1.12000, 378.0
1.14000, 379.0
1.16000, 384.0
1.18000, 420.0
1.20000, 465.0
1.22000, 443.0
1.24000, 452.0
1.26000, 450.0
1.28000, 480.0
1.30000, 486.0
1.32000, 484.0
1.34000, 484.0
1.36000, 455.0
1.38000, 487.0
1.40000, 504.0
1.42000, 496.0
1.44000, 494.0
1.46000, 531.0
1.48000, 518.0
1.50000, 529.0
1.52000, 516.0
1.54000, 497.0
1.56000, 476.0
1.58000, 490.0
1.60000, 534.0
1.62000, 522.0
1.64000, 506.0
1.66000, 514.0
1.68000, 579.0
1.70000, 630.0
1.72000, 682.0
1.74000, 745.0
1.76000, 688.0
1.78000, 636.0
1.80000, 584.0
1.82000, 539.0
1.84000, 542.0
1.86000, 516.0
1.88000, 507.0
1.90000, 497.0
1.92000, 518.0
1.94000, 538.0
1.96000, 544.0
1.98000, 546.0
2.00000, 533.0
2.02000, 556.0
2.04000, 505.0
2.06000, 521.0
2.08000, 559.0
2.10000, 514.0
2.12000, 491.0
2.14000, 568.0
2.16000, 531.0
2.18000, 510.0
2.20000, 534.0
2.22000, 555.0
2.24000, 562.0
2.26000, 596.0
2.28000, 613.0
2.30000, 589.0
2.32000, 662.0
2.34000, 604.0
2.36000, 571.0
2.38000, 609.0
2.40000, 569.0
2.42000, 505.0
2.44000, 561.0
2.46000, 557.0
2.48000, 522.0
2.50000, 524.0
2.52000, 546.0
2.54000, 544.0
2.56000, 537.0
2.58000, 538.0
2.60000, 549.0
2.62000, 540.0
2.64000, 533.0
2.66000, 539.0
2.68000, 529.0
2.70000, 562.0
2.72000, 502.0
2.74000, 498.0
2.76000, 485.0
2.78000, 526.0
2.80000, 519.0
2.82000, 501.0
2.84000, 504.0
2.86000, 476.0
2.88000, 521.0
2.90000, 480.0
2.92000, 487.0
2.94000, 516.0
2.96000, 475.0
2.98000, 470.0
3.00000, 509.0
3.02000, 482.0
3.04000, 495.0
3.06000, 465.0
3.08000, 477.0
3.10000, 514.0
3.12000, 504.0
3.14000, 513.0
3.16000, 461.0
3.18000, 456.0
3.20000, 436.0
3.22000, 487.0
3.24000, 494.0
3.26000, 463.0
3.28000, 520.0
3.30000, 469.0
3.32000, 476.0
3.34000, 450.0
3.36000, 469.0
3.38000, 461.0
3.40000, 459.0
3.42000, 493.0
3.44000, 456.0
3.46000, 464.0
3.48000, 436.0
3.50000, 455.0
3.52000, 448.0
3.54000, 465.0
3.56000, 451.0
3.58000, 465.0
3.60000, 446.0
3.62000, 474.0
3.64000, 435.0
3.66000, 482.0
3.68000, 456.0
3.70000, 428.0
3.72000, 433.0
3.74000, 457.0
3.76000, 406.0
3.78000, 409.0
3.80000, 411.0
3.82000, 412.0
3.84000, 408.0
3.86000, 388.0
3.88000, 420.0
3.90000, 397.0
3.92000, 368.0
3.94000, 378.0
3.96000, 404.0
3.98000, 403.0
4.00000, 413.0
4.02000, 389.0
4.04000, 431.0
4.06000, 376.0
4.08000, 368.0
4.10000, 383.0
4.12000, 397.0
4.14000, 376.0
4.16000, 422.0
4.18000, 363.0
4.20000, 378.0
4.22000, 387.0
4.24000, 380.0
4.26000, 354.0
4.28000, 389.0
4.30000, 376.0
4.32000, 369.0
4.34000, 386.0
4.36000, 375.0
4.38000, 355.0
4.40000, 347.0
4.42000, 380.0
4.44000, 384.0
4.46000, 365.0
4.48000, 362.0
4.50000, 354.0
4.52000, 316.0
4.54000, 379.0
4.56000, 393.0
4.58000, 409.0
4.60000, 415.0
4.62000, 407.0
4.64000, 406.0
4.66000, 439.0
4.68000, 449.0
4.70000, 399.0
4.72000, 376.0
4.74000, 365.0
4.76000, 339.0
4.78000, 345.0
4.80000, 359.0
4.82000, 331.0
4.84000, 320.0
4.86000, 350.0
4.88000, 347.0
4.90000, 350.0
4.92000, 364.0
4.94000, 355.0
4.96000, 428.0
4.98000, 359.0
5.00000, 368.0
5.02000, 356.0
5.04000, 348.0
5.06000, 341.0
5.08000, 307.0
5.10000, 327.0
5.12000, 323.0
5.14000, 341.0
5.16000, 315.0
5.18000, 294.0
5.20000, 318.0
5.22000, 311.0
5.24000, 321.0
5.26000, 298.0
5.28000, 301.0
5.30000, 323.0
5.32000, 344.0
5.34000, 340.0
5.36000, 394.0
5.38000, 394.0
5.40000, 379.0
5.42000, 409.0
5.44000, 388.0
5.46000, 369.0
5.48000, 357.0
5.50000, 354.0
5.52000, 319.0
5.54000, 293.0
5.56000, 310.0
5.58000, 270.0
5.60000, 284.0
5.62000, 281.0
5.64000, 286.0
5.66000, 277.0
5.68000, 279.0
5.70000, 279.0
5.72000, 279.0
5.74000, 291.0
5.76000, 274.0
5.78000, 313.0
5.80000, 360.0
5.82000, 404.0
5.84000, 487.0
5.86000, 569.0
5.88000, 634.0
5.90000, 666.0
5.92000, 624.0
5.94000, 553.0
5.96000, 485.0
5.98000, 404.0
6.00000, 332.0
6.02000, 319.0
6.04000, 276.0
6.06000, 261.0
6.08000, 295.0
6.10000, 245.0
6.12000, 293.0
6.14000, 291.0
6.16000, 307.0
6.18000, 323.0
6.20000, 338.0
6.22000, 459.0
6.24000, 704.0
6.26000, 1349.0
6.28000, 2609.0
6.30000, 4836.0
6.32000, 8383.0
6.34000, 12900.0
6.36000, 17626.0
6.38000, 21419.0
6.40000, 22621.0
6.42000, 21122.0
6.44000, 17602.0
6.46000, 13025.0
6.48000, 8336.0
6.50000, 4937.0
6.52000, 2674.0
6.54000, 1271.0
6.56000, 692.0
6.58000, 400.0
6.60000, 328.0
6.62000, 305.0
6.64000, 258.0
6.66000, 259.0
6.68000, 250.0
6.70000, 254.0
6.72000, 276.0
6.74000, 281.0
6.76000, 249.0
6.78000, 282.0
6.80000, 263.0
6.82000, 249.0
6.84000, 257.0
6.86000, 303.0
6.88000, 332.0
6.90000, 376.0
6.92000, 518.0
6.94000, 739.0
6.96000, 1150.0
6.98000, 1579.0
7.00000, 2060.0
7.02000, 2632.0
7.04000, 2968.0
7.06000, 2994.0
7.08000, 2824.0
7.10000, 2442.0
7.12000, 1825.0
7.14000, 1264.0
7.16000, 788.0
7.18000, 478.0
7.20000, 304.0
7.22000, 212.0
7.24000, 169.0
7.26000, 167.0
7.28000, 143.0
7.30000, 133.0
7.32000, 144.0
7.34000, 134.0
7.36000, 138.0
7.38000, 143.0
7.40000, 135.0
7.42000, 142.0
7.44000, 160.0
7.46000, 161.0
7.48000, 139.0
7.50000, 155.0
7.52000, 153.0
7.54000, 138.0
7.56000, 136.0
7.58000, 119.0
7.60000, 135.0
7.62000, 133.0
7.64000, 119.0
7.66000, 127.0
7.68000, 118.0
7.70000, 138.0
7.72000, 147.0
7.74000, 152.0
7.76000, 123.0
7.78000, 135.0
7.80000, 120.0
7.82000, 150.0
7.84000, 124.0
7.86000, 139.0
7.88000, 139.0
7.90000, 131.0
7.92000, 145.0
7.94000, 155.0
7.96000, 148.0
7.98000, 146.0
8.00000, 132.0
8.02000, 153.0
8.04000, 168.0
8.06000, 157.0
8.08000, 172.0
8.10000, 154.0
8.12000, 130.0
8.14000, 151.0
8.16000, 136.0
8.18000, 131.0
8.20000, 133.0
8.22000, 122.0
8.24000, 129.0
8.26000, 142.0
8.28000, 131.0
8.30000, 122.0
8.32000, 112.0
8.34000, 145.0
8.36000, 129.0
8.38000, 123.0
8.40000, 123.0
8.42000, 131.0
8.44000, 136.0
8.46000, 121.0
8.48000, 144.0
8.50000, 124.0
8.52000, 118.0
8.54000, 104.0
8.56000, 130.0
8.58000, 126.0
8.60000, 114.0
8.62000, 134.0
8.64000, 116.0
8.66000, 118.0
8.68000, 134.0
8.70000, 115.0
8.72000, 125.0
8.74000, 115.0
8.76000, 126.0
8.78000, 109.0
8.80000, 133.0
8.82000, 113.0
8.84000, 123.0
8.86000, 105.0
8.88000, 113.0
8.90000, 123.0
8.92000, 122.0
8.94000, 132.0
8.96000, 122.0
8.98000, 126.0
9.00000, 120.0
9.02000, 111.0
9.04000, 122.0
9.06000, 118.0
9.08000, 129.0
9.10000, 137.0
9.12000, 116.0
9.14000, 113.0
9.16000, 114.0
9.18000, 110.0
9.20000, 120.0
9.22000, 120.0
9.24000, 95.0
9.26000, 105.0
9.28000, 119.0
9.30000, 121.0
9.32000, 128.0
9.34000, 102.0
9.36000, 103.0
9.38000, 119.0
9.40000, 114.0
9.42000, 117.0
9.44000, 112.0
9.46000, 85.0
9.48000, 99.0
9.50000, 115.0
9.52000, 105.0
9.54000, 103.0
9.56000, 96.0
9.58000, 114.0
9.60000, 98.0
9.62000, 104.0
9.64000, 89.0
9.66000, 96.0
9.68000, 95.0
9.70000, 103.0
9.72000, 95.0
9.74000, 114.0
9.76000, 102.0
9.78000, 105.0
9.80000, 111.0
9.82000, 110.0
9.84000, 100.0
9.86000, 106.0
9.88000, 102.0
9.90000, 111.0
9.92000, 86.0
9.94000, 89.0
9.96000, 97.0
9.98000, 106.0
10.00000, 106.0
10.02000, 79.0
10.04000, 100.0
10.06000, 102.0
10.08000, 100.0
10.10000, 94.0
10.12000, 98.0
10.14000, 92.0
10.16000, 90.0
10.18000, 86.0
10.20000, 109.0
10.22000, 83.0
10.24000, 95.0
10.26000, 92.0
10.28000, 88.0
10.30000, 80.0
10.32000, 88.0
10.34000, 107.0
10.36000, 94.0
10.38000, 108.0
10.40000, 86.0
10.42000, 98.0
10.44000, 96.0
10.46000, 85.0
10.48000, 87.0
10.50000, 74.0
10.52000, 97.0
10.54000, 96.0
10.56000, 99.0
10.58000, 89.0
10.60000, 93.0
10.62000, 93.0
10.64000, 93.0
10.66000, 91.0
10.68000, 88.0
10.70000, 73.0
10.72000, 74.0
10.74000, 85.0
10.76000, 92.0
10.78000, 86.0
10.80000, 69.0
10.82000, 80.0
10.84000, 87.0
10.86000, 77.0
10.88000, 89.0
10.90000, 84.0
10.92000, 87.0
10.94000, 71.0
10.96000, 88.0
10.98000, 89.0
11.00000, 85.0
11.02000, 71.0
11.04000, 89.0
11.06000, 83.0
11.08000, 90.0
11.10000, 88.0
11.12000, 67.0
11.14000, 65.0
11.16000, 65.0
11.18000, 82.0
11.20000, 74.0
11.22000, 76.0
11.24000, 72.0
11.26000, 76.0
11.28000, 79.0
11.30000, 82.0
11.32000, 80.0
11.34000, 80.0
11.36000, 86.0
11.38000, 87.0
11.40000, 76.0
11.42000, 83.0
11.44000, 53.0
11.46000, 68.0
11.48000, 66.0
11.50000, 66.0
11.52000, 58.0
11.54000, 71.0
11.56000, 66.0
11.58000, 80.0
11.60000, 72.0
11.62000, 82.0
11.64000, 71.0
11.66000, 76.0
11.68000, 76.0
11.70000, 65.0
11.72000, 70.0
11.74000, 75.0
11.76000, 85.0
11.78000, 73.0
11.80000, 74.0
11.82000, 60.0
11.84000, 59.0
11.86000, 61.0
11.88000, 51.0
11.90000, 62.0
11.92000, 65.0
11.94000, 75.0
11.96000, 69.0
11.98000, 68.0
12.00000, 54.0
12.02000, 67.0
12.04000, 58.0
12.06000, 67.0
12.08000, 51.0
12.10000, 65.0
12.12000, 61.0
12.14000, 67.0
12.16000, 55.0
12.18000, 67.0
12.20000, 62.0
12.22000, 54.0
12.24000, 69.0
12.26000, 55.0
12.28000, 53.0
12.30000, 69.0
12.32000, 59.0
12.34000, 59.0
12.36000, 56.0
12.38000, 56.0
12.40000, 66.0
12.42000, 58.0
12.44000, 63.0
12.46000, 62.0
12.48000, 53.0
12.50000, 50.0
12.52000, 44.0
12.54000, 69.0
12.56000, 51.0
12.58000, 44.0
12.60000, 54.0
12.62000, 61.0
12.64000, 56.0
12.66000, 62.0
12.68000, 58.0
12.70000, 82.0
12.72000, 68.0
12.74000, 78.0
12.76000, 61.0
12.78000, 93.0
12.80000, 93.0
12.82000, 95.0
12.84000, 83.0
12.86000, 85.0
12.88000, 75.0
12.90000, 65.0
12.92000, 47.0
12.94000, 55.0
12.96000, 55.0
12.98000, 57.0
13.00000, 40.0
13.02000, 44.0
13.04000, 51.0
13.06000, 56.0
13.08000, 41.0
13.10000, 44.0
13.12000, 60.0
13.14000, 45.0
13.16000, 40.0
13.18000, 53.0
13.20000, 52.0
13.22000, 52.0
13.24000, 40.0
13.26000, 49.0
13.28000, 47.0
13.30000, 58.0
13.32000, 35.0
13.34000, 50.0
13.36000, 42.0
13.38000, 53.0
13.40000, 61.0
13.42000, 61.0
13.44000, 45.0
13.46000, 47.0
13.48000, 62.0
13.50000, 54.0
13.52000, 62.0
13.54000, 51.0
13.56000, 53.0
13.58000, 40.0
13.60000, 53.0
13.62000, 35.0
13.64000, 34.0
13.66000, 46.0
13.68000, 47.0
13.70000, 36.0
13.72000, 41.0
13.74000, 55.0
13.76000, 43.0
13.78000, 36.0
13.80000, 48.0
13.82000, 43.0
13.84000, 36.0
13.86000, 37.0
13.88000, 41.0
13.90000, 58.0
13.92000, 40.0
13.94000, 48.0
13.96000, 45.0
13.98000, 46.0
14.00000, 39.0
14.02000, 36.0
14.04000, 38.0
14.06000, 34.0
14.08000, 39.0
14.10000, 29.0
14.12000, 46.0
14.14000, 38.0
14.16000, 30.0
14.18000, 39.0
14.20000, 32.0
14.22000, 34.0
14.24000, 26.0
14.26000, 29.0
14.28000, 40.0
14.30000, 30.0
14.32000, 33.0
14.34000, 31.0
14.36000, 30.0
14.38000, 45.0
14.40000, 32.0
14.42000, 31.0
14.44000, 39.0
14.46000, 34.0
14.48000, 35.0
14.50000, 27.0
14.52000, 33.0
14.54000, 27.0
14.56000, 19.0
14.58000, 40.0
14.60000, 33.0
14.62000, 28.0
14.64000, 32.0
14.66000, 31.0
14.68000, 30.0
14.70000, 28.0
14.72000, 29.0
14.74000, 25.0
14.76000, 33.0
14.78000, 30.0
14.80000, 32.0
14.82000, 28.0
14.84000, 29.0
14.86000, 32.0
14.88000, 29.0
14.90000, 29.0
14.92000, 29.0
14.94000, 32.0
14.96000, 22.0
14.98000, 22.0
15.00000, 27.0
15.02000, 24.0
15.04000, 21.0
15.06000, 21.0
15.08000, 34.0
15.10000, 24.0
15.12000, 29.0
15.14000, 31.0
15.16000, 21.0
15.18000, 29.0
15.20000, 24.0
15.22000, 20.0
15.24000, 24.0
15.26000, 31.0
15.28000, 24.0
15.30000, 22.0
15.32000, 24.0
15.34000, 21.0
15.36000, 33.0
15.38000, 24.0
15.40000, 23.0
15.42000, 20.0
15.44000, 31.0
15.46000, 27.0
15.48000, 23.0
15.50000, 39.0
15.52000, 15.0
15.54000, 22.0
15.56000, 19.0
15.58000, 18.0
15.60000, 24.0
15.62000, 28.0
15.64000, 12.0
15.66000, 19.0
15.68000, 24.0
15.70000, 18.0
15.72000, 18.0
15.74000, 28.0
15.76000, 22.0
15.78000, 17.0
15.80000, 23.0
15.82000, 19.0
15.84000, 29.0
15.86000, 28.0
15.88000, 22.0
15.90000, 13.0
15.92000, 15.0
15.94000, 18.0
15.96000, 20.0
15.98000, 21.0
16.00000, 22.0
16.02000, 21.0
16.04000, 18.0
16.06000, 12.0
16.08000, 14.0
16.10000, 22.0
16.12000, 21.0
16.14000, 16.0
16.16000, 24.0
16.18000, 18.0
16.20000, 21.0
16.22000, 15.0
16.24000, 9.0
16.26000, 18.0
16.28000, 19.0
16.30000, 21.0
16.32000, 16.0
16.34000, 19.0
16.36000, 17.0
16.38000, 13.0
16.40000, 16.0
16.42000, 14.0
16.44000, 16.0
16.46000, 16.0
16.48000, 16.0
16.50000, 22.0
16.52000, 17.0
16.54000, 10.0
16.56000, 16.0
16.58000, 13.0
16.60000, 11.0
16.62000, 14.0
16.64000, 20.0
16.66000, 9.0
16.68000, 18.0
16.70000, 11.0
16.72000, 11.0
16.74000, 11.0
16.76000, 9.0
16.78000, 16.0
16.80000, 11.0
16.82000, 8.0
16.84000, 9.0
16.86000, 16.0
16.88000, 12.0
16.90000, 12.0
16.92000, 10.0
16.94000, 10.0
16.96000, 11.0
16.98000, 12.0
17.00000, 9.0
17.02000, 12.0
17.04000, 12.0
17.06000, 12.0
17.08000, 13.0
17.10000, 12.0
17.12000, 8.0
17.14000, 9.0
17.16000, 9.0
17.18000, 11.0
17.20000, 9.0
17.22000, 15.0
17.24000, 7.0
17.26000, 11.0
17.28000, 12.0
17.30000, 9.0
17.32000, 13.0
17.34000, 11.0
17.36000, 8.0
17.38000, 9.0
17.40000, 9.0
17.42000, 9.0
17.44000, 11.0
17.46000, 9.0
17.48000, 8.0
17.50000, 9.0
17.52000, 4.0
17.54000, 7.0
17.56000, 10.0
17.58000, 10.0
17.60000, 6.0
17.62000, 9.0
17.64000, 13.0
17.66000, 9.0
17.68000, 8.0
17.70000, 8.0
17.72000, 8.0
17.74000, 5.0
17.76000, 5.0
17.78000, 5.0
17.80000, 5.0
17.82000, 9.0
17.84000, 7.0
17.86000, 6.0
17.88000, 5.0
17.90000, 4.0
17.92000, 9.0
17.94000, 11.0
17.96000, 8.0
17.98000, 12.0
18.00000, 9.0
18.02000, 10.0
18.04000, 6.0
18.06000, 8.0
18.08000, 9.0
18.10000, 7.0
18.12000, 6.0
18.14000, 2.0
18.16000, 8.0
18.18000, 4.0
18.20000, 4.0
18.22000, 7.0
18.24000, 4.0
18.26000, 7.0
18.28000, 5.0
18.30000, 0.0
18.32000, 2.0
18.34000, 9.0
18.36000, 6.0
18.38000, 11.0
18.40000, 4.0
18.42000, 5.0
18.44000, 7.0
18.46000, 4.0
18.48000, 3.0
18.50000, 4.0
18.52000, 6.0
18.54000, 8.0
18.56000, 4.0
18.58000, 7.0
18.60000, 6.0
18.62000, 3.0
18.64000, 5.0
18.66000, 5.0
18.68000, 6.0
18.70000, 4.0
18.72000, 8.0
18.74000, 4.0
18.76000, 5.0
18.78000, 8.0
18.80000, 5.0
18.82000, 4.0
18.84000, 3.0
18.86000, 5.0
18.88000, 3.0
18.90000, 3.0
18.92000, 3.0
18.94000, 7.0
18.96000, 5.0
18.98000, 5.0
19.00000, 1.0
19.02000, 3.0
19.04000, 2.0
19.06000, 3.0
19.08000, 2.0
19.10000, 3.0
19.12000, 3.0
19.14000, 4.0
19.16000, 4.0
19.18000, 3.0
19.20000, 2.0
19.22000, 3.0
19.24000, 2.0
19.26000, 1.0
19.28000, 2.0
19.30000, 5.0
19.32000, 2.0
19.34000, 4.0
19.36000, 0.0
19.38000, 1.0
19.40000, 3.0
19.42000, 2.0
19.44000, 6.0
19.46000, 2.0
19.48000, 2.0
19.50000, 2.0
19.52000, 0.0
19.54000, 5.0
19.56000, 1.0
19.58000, 2.0
19.60000, 1.0
19.62000, 1.0
19.64000, 2.0
19.66000, 1.0
19.68000, 2.0
19.70000, 0.0
19.72000, 3.0
19.74000, 2.0
19.76000, 1.0
19.78000, 1.0
19.80000, 2.0
19.82000, 1.0
19.84000, 1.0
19.86000, 3.0
19.88000, 1.0
19.90000, 1.0
19.92000, 0.0
19.94000, 0.0
19.96000, 0.0
19.98000, 0.0
20.00000, 2.0
20.02000, 0.0
20.04000, 0.0
20.06000, 2.0
20.08000, 0.0
20.10000, 0.0
20.12000, 1.0
20.14000, 1.0
20.16000, 1.0
20.18000, 0.0
20.20000, 0.0
20.22000, 0.0
20.24000, 0.0
20.26000, 0.0
20.27000, 0.0
#ENDOFDATA   :