File: SEM/CL20_B 100 Spectrum 1.txt
#FORMAT      : EMSA/MAS Spectral Data File
#VERSION     : 1.0
#TITLE       : Spectrum 2
#DATE        : 20-DEC-2021
#TIME        : 13:56
#OWNER       :
#NPOINTS     : 2048.0
#NCOLUMNS    : 1.0
#XUNITS      : keV
#YUNITS      : counts
#DATATYPE    : XY
#XPERCHAN    : 0.01
#OFFSET      : -0.2
#SIGNALTYPE  : EDS
#CHOFFSET    : 20.0
#LIVETIME    : 40.0
#REALTIME    : 43.514
#BEAMKV      : 20.0
#MAGCAM      : 500.0
#XTILTSTGE   : 0.0
#AZIMANGLE   : 0.0
#ELEVANGLE   : 35.0
#XPOSITION mm: -3.6152
#YPOSITION mm: -8.2016
#ZPOSITION mm: 10.0000
##OXINSTPT   : 4
##OXINSTSTROB: 43.59
##OXINSTNDET : 1
##OXINSTELEMS: 6,25,26,14,24,23,16,29
##OXINSTLABEL: 6, 0.277, C
##OXINSTLABEL: 25, 5.899, Mn
##OXINSTLABEL: 25, 6.490, Mn
##OXINSTLABEL: 25, 0.636, Mn
##OXINSTLABEL: 25, 0.556, Mn
##OXINSTLABEL: 26, 6.404, Fe
##OXINSTLABEL: 26, 7.058, Fe
##OXINSTLABEL: 26, 0.703, Fe
##OXINSTLABEL: 26, 0.615, Fe
##OXINSTLABEL: 14, 1.740, Si
##OXINSTLABEL: 24, 5.415, Cr
##OXINSTLABEL: 24, 5.947, Cr
##OXINSTLABEL: 24, 0.573, Cr
##OXINSTLABEL: 24, 0.500, Cr
##OXINSTLABEL: 23, 4.952, V
##OXINSTLABEL: 23, 5.427, V
##OXINSTLABEL: 23, 0.511, V
##OXINSTLABEL: 23, 0.446, V
##OXINSTLABEL: 16, 2.308, S
##OXINSTLABEL: 16, 2.464, S
##OXINSTLABEL: 29, 8.048, Cu
##OXINSTLABEL: 29, 8.905, Cu
##OXINSTLABEL: 29, 0.930, Cu
##OXINSTLABEL: 29, 0.832, Cu
##OXINSTLABEL: 29, 0.811, Cu
#SPECTRUM    : Spectral Data Starts Here
-0.20000, 0.0
-0.18000, 0.0
-0.16000, 0.0
-0.14000, 0.0
-0.12000, 0.0
-0.10000, 0.0
-0.08000, 0.0
-0.06000, 2.0
-0.04000, 45.0
-0.02000, 336.0
0.00000, 949.0
0.02000, 1566.0
0.04000, 1572.0
0.06000, 925.0
0.08000, 335.0
0.10000, 236.0
0.12000, 176.0
0.14000, 179.0
0.16000, 164.0
0.18000, 186.0
0.20000, 229.0
0.22000, 336.0
0.24000, 591.0
0.26000, 1001.0
0.28000, 1134.0
0.30000, 701.0
0.32000, 324.0
0.34000, 238.0
0.36000, 269.0
0.38000, 352.0
0.40000, 387.0
0.42000, 440.0
0.44000, 443.0
0.46000, 585.0
0.48000, 754.0
0.50000, 967.0
0.52000, 1149.0
0.54000, 1221.0
0.56000, 1432.0
0.58000, 2616.0
0.60000, 4743.0
0.62000, 5848.0
0.64000, 5055.0
0.66000, 5654.0
0.68000, 10025.0
0.70000, 14151.0
0.72000, 12258.0
0.74000, 6149.0
0.76000, 2018.0
0.78000, 706.0
0.80000, 403.0
0.82000, 340.0
0.84000, 284.0
0.86000, 288.0
0.88000, 289.0
0.90000, 298.0
0.92000, 293.0
0.94000, 317.0
0.96000, 322.0
0.98000, 299.0
1.00000, 309.0
1.02000, 322.0
1.04000, 297.0
1.06000, 324.0
1.08000, 312.0
1.10000, 367.0
1.12000, 357.0
1.14000, 371.0
1.16000, 347.0
1.18000, 385.0
1.20000, 382.0
1.22000, 412.0
1.24000, 426.0
1.26000, 400.0
1.28000, 430.0
1.30000, 409.0
1.32000, 435.0
1.34000, 452.0
1.36000, 418.0
1.38000, 481.0
1.40000, 483.0
1.42000, 482.0
1.44000, 461.0
1.46000, 481.0
1.48000, 484.0
1.50000, 475.0
1.52000, 477.0
1.54000, 462.0
1.56000, 451.0
1.58000, 488.0
1.60000, 453.0
1.62000, 439.0
1.64000, 470.0
1.66000, 528.0
1.68000, 551.0
1.70000, 584.0
1.72000, 665.0
1.74000, 663.0
1.76000, 673.0
1.78000, 596.0
1.80000, 529.0
1.82000, 511.0
1.84000, 505.0
1.86000, 473.0
1.88000, 519.0
1.90000, 494.0
1.92000, 507.0
1.94000, 511.0
1.96000, 520.0
1.98000, 506.0
2.00000, 524.0
2.02000, 523.0
2.04000, 523.0
2.06000, 530.0
2.08000, 514.0
2.10000, 481.0
2.12000, 508.0
2.14000, 552.0
2.16000, 509.0
2.18000, 517.0
2.20000, 509.0
2.22000, 516.0
2.24000, 579.0
2.26000, 563.0
2.28000, 612.0
2.30000, 603.0
2.32000, 623.0
2.34000, 593.0
2.36000, 552.0
2.38000, 546.0
2.40000, 533.0
2.42000, 533.0
2.44000, 526.0
2.46000, 515.0
2.48000, 501.0
2.50000, 527.0
2.52000, 528.0
2.54000, 537.0
2.56000, 522.0
2.58000, 525.0
2.60000, 521.0
2.62000, 531.0
2.64000, 516.0
2.66000, 493.0
2.68000, 484.0
2.70000, 540.0
2.72000, 515.0
2.74000, 481.0
2.76000, 506.0
2.78000, 527.0
2.80000, 516.0
2.82000, 495.0
2.84000, 497.0
2.86000, 538.0
2.88000, 510.0
2.90000, 505.0
2.92000, 484.0
2.94000, 508.0
2.96000, 486.0
2.98000, 487.0
3.00000, 488.0
3.02000, 501.0
3.04000, 500.0
3.06000, 475.0
3.08000, 498.0
3.10000, 469.0
3.12000, 488.0
3.14000, 483.0
3.16000, 481.0
3.18000, 463.0
3.20000, 487.0
3.22000, 449.0
3.24000, 487.0
3.26000, 454.0
3.28000, 452.0
3.30000, 462.0
3.32000, 475.0
3.34000, 458.0
3.36000, 467.0
3.38000, 463.0
3.40000, 473.0
3.42000, 479.0
3.44000, 465.0
3.46000, 459.0
3.48000, 450.0
3.50000, 451.0
3.52000, 447.0
3.54000, 482.0
3.56000, 464.0
3.58000, 436.0
3.60000, 449.0
3.62000, 484.0
3.64000, 408.0
3.66000, 424.0
3.68000, 419.0
3.70000, 452.0
3.72000, 460.0
3.74000, 431.0
3.76000, 408.0
3.78000, 404.0
3.80000, 428.0
3.82000, 396.0
3.84000, 442.0
3.86000, 437.0
3.88000, 444.0
3.90000, 425.0
3.92000, 437.0
3.94000, 409.0
3.96000, 400.0
3.98000, 428.0
4.00000, 446.0
4.02000, 433.0
4.04000, 374.0
4.06000, 406.0
4.08000, 426.0
4.10000, 393.0
4.12000, 416.0
4.14000, 385.0
4.16000, 405.0
4.18000, 431.0
4.20000, 398.0
4.22000, 387.0
4.24000, 378.0
4.26000, 418.0
4.28000, 365.0
4.30000, 366.0
4.32000, 417.0
4.34000, 383.0
4.36000, 372.0
4.38000, 389.0
4.40000, 387.0
4.42000, 367.0
4.44000, 356.0
4.46000, 401.0
4.48000, 399.0
4.50000, 371.0
4.52000, 389.0
4.54000, 358.0
4.56000, 393.0
4.58000, 392.0
4.60000, 444.0
4.62000, 460.0
4.64000, 467.0
4.66000, 456.0
4.68000, 435.0
4.70000, 417.0
4.72000, 396.0
4.74000, 386.0
4.76000, 338.0
4.78000, 359.0
4.80000, 369.0
4.82000, 340.0
4.84000, 356.0
4.86000, 340.0
4.88000, 365.0
4.90000, 364.0
4.92000, 378.0
4.94000, 381.0
4.96000, 400.0
4.98000, 413.0
5.00000, 364.0
5.02000, 348.0
5.04000, 359.0
5.06000, 314.0
5.08000, 358.0
5.10000, 335.0
5.12000, 334.0
5.14000, 346.0
5.16000, 320.0
5.18000, 321.0
5.20000, 334.0
5.22000, 338.0
5.24000, 327.0
5.26000, 305.0
5.28000, 318.0
5.30000, 342.0
5.32000, 383.0
5.34000, 397.0
5.36000, 396.0
5.38000, 413.0
5.40000, 413.0
5.42000, 442.0
5.44000, 378.0
5.46000, 401.0
5.48000, 395.0
5.50000, 332.0
5.52000, 321.0
5.54000, 337.0
5.56000, 308.0
5.58000, 320.0
5.60000, 300.0
5.62000, 298.0
5.64000, 299.0
5.66000, 328.0
5.68000, 304.0
5.70000, 307.0
5.72000, 303.0
5.74000, 295.0
5.76000, 314.0
5.78000, 305.0
5.80000, 386.0
5.82000, 458.0
5.84000, 521.0
5.86000, 624.0
5.88000, 719.0
5.90000, 729.0
5.92000, 678.0
5.94000, 623.0
5.96000, 539.0
5.98000, 409.0
6.00000, 354.0
6.02000, 317.0
6.04000, 305.0
6.06000, 335.0
6.08000, 321.0
6.10000, 311.0
6.12000, 307.0
6.14000, 308.0
6.16000, 354.0
6.18000, 332.0
6.20000, 395.0
6.22000, 504.0
6.24000, 780.0
6.26000, 1465.0
6.28000, 2727.0
6.30000, 5274.0
6.32000, 8884.0
6.34000, 13638.0
6.36000, 18548.0
6.38000, 22630.0
6.40000, 24170.0
6.42000, 22609.0
6.44000, 18534.0
6.46000, 13802.0
6.48000, 8926.0
6.50000, 5177.0
6.52000, 2770.0
6.54000, 1379.0
6.56000, 742.0
6.58000, 414.0
6.60000, 366.0
6.62000, 310.0
6.64000, 284.0
6.66000, 263.0
6.68000, 257.0
6.70000, 256.0
6.72000, 247.0
6.74000, 262.0
6.76000, 261.0
6.78000, 300.0
6.80000, 266.0
6.82000, 274.0
6.84000, 311.0
6.86000, 313.0
6.88000, 340.0
6.90000, 437.0
6.92000, 551.0
6.94000, 798.0
6.96000, 1161.0
6.98000, 1637.0
7.00000, 2308.0
7.02000, 2942.0
7.04000, 3150.0
7.06000, 3170.0
7.08000, 2978.0
7.10000, 2428.0
7.12000, 1866.0
7.14000, 1326.0
7.16000, 799.0
7.18000, 492.0
7.20000, 328.0
7.22000, 220.0
7.24000, 151.0
7.26000, 161.0
7.28000, 142.0
7.30000, 139.0
7.32000, 132.0
7.34000, 143.0
7.36000, 168.0
7.38000, 138.0
7.40000, 139.0
7.42000, 154.0
7.44000, 160.0
7.46000, 136.0
7.48000, 155.0
7.50000, 157.0
7.52000, 172.0
7.54000, 154.0
7.56000, 142.0
7.58000, 145.0
7.60000, 155.0
7.62000, 134.0
7.64000, 141.0
7.66000, 163.0
7.68000, 144.0
7.70000, 147.0
7.72000, 136.0
7.74000, 151.0
7.76000, 136.0
7.78000, 144.0
7.80000, 135.0
7.82000, 151.0
7.84000, 156.0
7.86000, 139.0
7.88000, 130.0
7.90000, 140.0
7.92000, 160.0
7.94000, 124.0
7.96000, 145.0
7.98000, 149.0
8.00000, 165.0
8.02000, 168.0
8.04000, 172.0
8.06000, 148.0
8.08000, 172.0
8.10000, 142.0
8.12000, 151.0
8.14000, 143.0
8.16000, 123.0
8.18000, 142.0
8.20000, 118.0
8.22000, 150.0
8.24000, 158.0
8.26000, 117.0
8.28000, 135.0
8.30000, 123.0
8.32000, 133.0
8.34000, 123.0
8.36000, 131.0
8.38000, 137.0
8.40000, 136.0
8.42000, 136.0
8.44000, 122.0
8.46000, 139.0
8.48000, 121.0
8.50000, 141.0
8.52000, 118.0
8.54000, 147.0
8.56000, 113.0
8.58000, 132.0
8.60000, 143.0
8.62000, 113.0
8.64000, 117.0
8.66000, 132.0
8.68000, 120.0
8.70000, 117.0
8.72000, 105.0
8.74000, 129.0
8.76000, 112.0
8.78000, 120.0
8.80000, 128.0
8.82000, 111.0
8.84000, 112.0
8.86000, 135.0
8.88000, 111.0
8.90000, 121.0
8.92000, 98.0
8.94000, 129.0
8.96000, 115.0
8.98000, 128.0
9.00000, 136.0
9.02000, 124.0
9.04000, 106.0
9.06000, 119.0
9.08000, 126.0
9.10000, 109.0
9.12000, 141.0
9.14000, 115.0
9.16000, 108.0
9.18000, 139.0
9.20000, 100.0
9.22000, 117.0
9.24000, 119.0
9.26000, 100.0
9.28000, 125.0
9.30000, 107.0
9.32000, 117.0
9.34000, 100.0
9.36000, 118.0
9.38000, 121.0
9.40000, 110.0
9.42000, 111.0
9.44000, 108.0
9.46000, 105.0
9.48000, 120.0
9.50000, 117.0
9.52000, 121.0
9.54000, 107.0
9.56000, 108.0
9.58000, 108.0
9.60000, 103.0
9.62000, 118.0
9.64000, 111.0
9.66000, 118.0
9.68000, 101.0
9.70000, 123.0
9.72000, 101.0
9.74000, 92.0
9.76000, 117.0
9.78000, 100.0
9.80000, 121.0
9.82000, 116.0
9.84000, 117.0
9.86000, 93.0
9.88000, 102.0
9.90000, 95.0
9.92000, 94.0
9.94000, 114.0
9.96000, 112.0
9.98000, 105.0
10.00000, 92.0
10.02000, 102.0
10.04000, 94.0
10.06000, 88.0
10.08000, 102.0
10.10000, 100.0
10.12000, 86.0
10.14000, 115.0
10.16000, 109.0
10.18000, 98.0
10.20000, 105.0
10.22000, 96.0
10.24000, 102.0
10.26000, 101.0
10.28000, 99.0
10.30000, 99.0
10.32000, 83.0
10.34000, 120.0
10.36000, 100.0
10.38000, 95.0
10.40000, 102.0
10.42000, 88.0
10.44000, 81.0
10.46000, 79.0
10.48000, 108.0
10.50000, 104.0
10.52000, 102.0
10.54000, 96.0
10.56000, 91.0
10.58000, 89.0
10.60000, 89.0
10.62000, 90.0
10.64000, 82.0
10.66000, 87.0
10.68000, 77.0
10.70000, 84.0
10.72000, 84.0
10.74000, 83.0
10.76000, 100.0
10.78000, 81.0
10.80000, 94.0
10.82000, 88.0
10.84000, 74.0
10.86000, 94.0
10.88000, 74.0
10.90000, 82.0
10.92000, 95.0
10.94000, 77.0
10.96000, 79.0
10.98000, 89.0
11.00000, 75.0
11.02000, 98.0
11.04000, 84.0
11.06000, 86.0
11.08000, 83.0
11.10000, 83.0
11.12000, 92.0
11.14000, 94.0
11.16000, 82.0
11.18000, 79.0
11.20000, 82.0
11.22000, 81.0
11.24000, 69.0
11.26000, 78.0
11.28000, 59.0
11.30000, 73.0
11.32000, 81.0
11.34000, 68.0
11.36000, 76.0
11.38000, 74.0
11.40000, 80.0
11.42000, 75.0
11.44000, 75.0
11.46000, 78.0
11.48000, 78.0
11.50000, 68.0
11.52000, 64.0
11.54000, 68.0
11.56000, 69.0
11.58000, 71.0
11.60000, 76.0
11.62000, 88.0
11.64000, 79.0
11.66000, 54.0
11.68000, 84.0
11.70000, 75.0
11.72000, 70.0
11.74000, 83.0
11.76000, 70.0
11.78000, 64.0
11.80000, 76.0
11.82000, 60.0
11.84000, 54.0
11.86000, 73.0
11.88000, 66.0
11.90000, 71.0
11.92000, 63.0
11.94000, 81.0
11.96000, 60.0
11.98000, 56.0
12.00000, 61.0
12.02000, 72.0
12.04000, 64.0
12.06000, 57.0
12.08000, 67.0
12.10000, 64.0
12.12000, 70.0
12.14000, 65.0
12.16000, 70.0
12.18000, 84.0
12.20000, 54.0
12.22000, 56.0
12.24000, 71.0
12.26000, 48.0
12.28000, 59.0
12.30000, 69.0
12.32000, 55.0
12.34000, 60.0
12.36000, 61.0
12.38000, 57.0
12.40000, 58.0
12.42000, 51.0
12.44000, 65.0
12.46000, 77.0
12.48000, 59.0
12.50000, 54.0
12.52000, 56.0
12.54000, 56.0
12.56000, 57.0
12.58000, 73.0
12.60000, 57.0
12.62000, 52.0
12.64000, 67.0
12.66000, 69.0
12.68000, 56.0
12.70000, 70.0
12.72000, 85.0
12.74000, 93.0
12.76000, 92.0
12.78000, 89.0
12.80000, 105.0
12.82000, 98.0
12.84000, 77.0
12.86000, 75.0
12.88000, 75.0
12.90000, 64.0
12.92000, 68.0
12.94000, 65.0
12.96000, 51.0
12.98000, 59.0
13.00000, 51.0
13.02000, 47.0
13.04000, 69.0
13.06000, 50.0
13.08000, 51.0
13.10000, 49.0
13.12000, 58.0
13.14000, 52.0
13.16000, 45.0
13.18000, 49.0
13.20000, 53.0
13.22000, 43.0
13.24000, 50.0
13.26000, 44.0
13.28000, 45.0
13.30000, 44.0
13.32000, 46.0
13.34000, 42.0
13.36000, 56.0
13.38000, 58.0
13.40000, 70.0
13.42000, 66.0
13.44000, 53.0
13.46000, 66.0
13.48000, 61.0
13.50000, 48.0
13.52000, 40.0
13.54000, 55.0
13.56000, 59.0
13.58000, 51.0
13.60000, 45.0
13.62000, 37.0
13.64000, 47.0
13.66000, 43.0
13.68000, 42.0
13.70000, 38.0
13.72000, 52.0
13.74000, 52.0
13.76000, 39.0
13.78000, 36.0
13.80000, 49.0
13.82000, 45.0
13.84000, 49.0
13.86000, 31.0
13.88000, 36.0
13.90000, 39.0
13.92000, 37.0
13.94000, 34.0
13.96000, 33.0
13.98000, 35.0
14.00000, 33.0
14.02000, 49.0
14.04000, 38.0
14.06000, 37.0
14.08000, 33.0
14.10000, 24.0
14.12000, 50.0
14.14000, 48.0
14.16000, 45.0
14.18000, 25.0
14.20000, 44.0
14.22000, 37.0
14.24000, 44.0
14.26000, 39.0
14.28000, 30.0
14.30000, 36.0
14.32000, 37.0
14.34000, 40.0
14.36000, 38.0
14.38000, 32.0
14.40000, 35.0
14.42000, 33.0
14.44000, 38.0
14.46000, 29.0
14.48000, 38.0
14.50000, 28.0
14.52000, 27.0
14.54000, 38.0
14.56000, 36.0
14.58000, 37.0
14.60000, 26.0
14.62000, 31.0
14.64000, 27.0
14.66000, 36.0
14.68000, 29.0
14.70000, 19.0
14.72000, 33.0
14.74000, 26.0
14.76000, 27.0
14.78000, 30.0
14.80000, 21.0
14.82000, 26.0
14.84000, 23.0
14.86000, 31.0
14.88000, 42.0
14.90000, 35.0
14.92000, 28.0
14.94000, 30.0
14.96000, 32.0
14.98000, 23.0
15.00000, 26.0
15.02000, 23.0
15.04000, 41.0
15.06000, 23.0
15.08000, 27.0
15.10000, 25.0
15.12000, 26.0
15.14000, 32.0
15.16000, 28.0
15.18000, 20.0
15.20000, 25.0
15.22000, 19.0
15.24000, 20.0
15.26000, 26.0
15.28000, 31.0
15.30000, 28.0
15.32000, 26.0
15.34000, 26.0
15.36000, 21.0
15.38000, 20.0
15.40000, 22.0
15.42000, 18.0
15.44000, 24.0
15.46000, 26.0
15.48000, 17.0
15.50000, 30.0
15.52000, 24.0
15.54000, 18.0
15.56000, 27.0
15.58000, 23.0
15.60000, 18.0
15.62000, 26.0
15.64000, 22.0
15.66000, 32.0
15.68000, 28.0
15.70000, 30.0
15.72000, 22.0
15.74000, 24.0
15.76000, 14.0
15.78000, 21.0
15.80000, 25.0
15.82000, 13.0
15.84000, 23.0
15.86000, 16.0
15.88000, 29.0
15.90000, 26.0
15.92000, 17.0
15.94000, 19.0
15.96000, 21.0
15.98000, 14.0
16.00000, 21.0
16.02000, 27.0
16.04000, 19.0
16.06000, 19.0
16.08000, 25.0
16.10000, 29.0
16.12000, 20.0
16.14000, 17.0
16.16000, 22.0
16.18000, 12.0
16.20000, 17.0
16.22000, 10.0
16.24000, 18.0
16.26000, 14.0
16.28000, 24.0
16.30000, 11.0
16.32000, 14.0
16.34000, 15.0
16.36000, 21.0
16.38000, 14.0
16.40000, 23.0
16.42000, 21.0
16.44000, 13.0
16.46000, 10.0
16.48000, 9.0
16.50000, 15.0
16.52000, 17.0
16.54000, 19.0
16.56000, 10.0
16.58000, 16.0
16.60000, 14.0
16.62000, 9.0
16.64000, 16.0
16.66000, 16.0
16.68000, 21.0
16.70000, 15.0
16.72000, 13.0
16.74000, 18.0
16.76000, 20.0
16.78000, 9.0
16.80000, 12.0
16.82000, 18.0
16.84000, 11.0
16.86000, 27.0
16.88000, 13.0
16.90000, 12.0
16.92000, 16.0
16.94000, 8.0
16.96000, 13.0
16.98000, 13.0
17.00000, 12.0
17.02000, 21.0
17.04000, 18.0
17.06000, 11.0
17.08000, 14.0
17.10000, 15.0
17.12000, 17.0
17.14000, 11.0
17.16000, 14.0
17.18000, 15.0
17.20000, 7.0
17.22000, 9.0
17.24000, 11.0
17.26000, 17.0
17.28000, 7.0
17.30000, 7.0
17.32000, 7.0
17.34000, 15.0
17.36000, 15.0
17.38000, 10.0
17.40000, 10.0
17.42000, 22.0
17.44000, 6.0
17.46000, 8.0
17.48000, 4.0
17.50000, 9.0
17.52000, 12.0
17.54000, 11.0
17.56000, 10.0
17.58000, 10.0
17.60000, 7.0
17.62000, 9.0
17.64000, 7.0
17.66000, 6.0
17.68000, 10.0
17.70000, 8.0
17.72000, 9.0
17.74000, 8.0
17.76000, 10.0
17.78000, 10.0
17.80000, 5.0
17.82000, 11.0
17.84000, 6.0
17.86000, 8.0
17.88000, 9.0
17.90000, 11.0
17.92000, 10.0
17.94000, 7.0
17.96000, 10.0
17.98000, 5.0
18.00000, 11.0
18.02000, 7.0
18.04000, 7.0
18.06000, 6.0
18.08000, 9.0
18.10000, 7.0
18.12000, 4.0
18.14000, 4.0
18.16000, 5.0
18.18000, 7.0
18.20000, 11.0
18.22000, 7.0
18.24000, 10.0
18.26000, 6.0
18.28000, 10.0
18.30000, 7.0
18.32000, 6.0
18.34000, 3.0
18.36000, 8.0
18.38000, 6.0
18.40000, 2.0
18.42000, 5.0
18.44000, 2.0
18.46000, 5.0
18.48000, 4.0
18.50000, 9.0
18.52000, 6.0
18.54000, 1.0
18.56000, 3.0
18.58000, 6.0
18.60000, 4.0
18.62000, 6.0
18.64000, 9.0
18.66000, 4.0
18.68000, 2.0
18.70000, 3.0
18.72000, 6.0
18.74000, 1.0
18.76000, 6.0
18.78000, 7.0
18.80000, 2.0
18.82000, 8.0
18.84000, 5.0
18.86000, 6.0
18.88000, 2.0
18.90000, 5.0
18.92000, 4.0
18.94000, 4.0
18.96000, 5.0
18.98000, 7.0
19.00000, 3.0
19.02000, 2.0
19.04000, 3.0
19.06000, 6.0
19.08000, 3.0
19.10000, 3.0
19.12000, 3.0
19.14000, 2.0
19.16000, 5.0
19.18000, 3.0
19.20000, 3.0
19.22000, 0.0
19.24000, 5.0
19.26000, 1.0
19.28000, 0.0
19.30000, 3.0
19.32000, 0.0
19.34000, 4.0
19.36000, 2.0
19.38000, 5.0
19.40000, 2.0
19.42000, 0.0
19.44000, 3.0
19.46000, 3.0
19.48000, 3.0
19.50000, 0.0
19.52000, 0.0
19.54000, 3.0
19.56000, 0.0
19.58000, 1.0
19.60000, 1.0
19.62000, 2.0
19.64000, 1.0
19.66000, 2.0
19.68000, 2.0
19.70000, 0.0
19.72000, 1.0
19.74000, 2.0
19.76000, 3.0
19.78000, 2.0
19.80000, 0.0
19.82000, 1.0
19.84000, 4.0
19.86000, 0.0
19.88000, 0.0
19.90000, 1.0
19.92000, 1.0
19.94000, 0.0
19.96000, 1.0
19.98000, 1.0
20.00000, 1.0
20.02000, 0.0
20.04000, 0.0
20.06000, 0.0
20.08000, 0.0
20.10000, 0.0
20.12000, 0.0
20.14000, 0.0
20.16000, 1.0
20.18000, 0.0
20.20000, 1.0
20.22000, 0.0
20.24000, 0.0
20.26000, 1.0
20.27000, 0.0
#ENDOFDATA   :