File: SEM/CL20_B 000 Spectrum 1.txt
#FORMAT      : EMSA/MAS Spectral Data File
#VERSION     : 1.0
#TITLE       : Spectrum 1
#DATE        : 20-DEC-2021
#TIME        : 13:48
#OWNER       :
#NPOINTS     : 2048.0
#NCOLUMNS    : 1.0
#XUNITS      : keV
#YUNITS      : counts
#DATATYPE    : XY
#XPERCHAN    : 0.01
#OFFSET      : -0.2
#SIGNALTYPE  : EDS
#CHOFFSET    : 20.0
#LIVETIME    : 40.0
#REALTIME    : 42.8623
#BEAMKV      : 20.0
#MAGCAM      : 500.0
#XTILTSTGE   : 0.0
#AZIMANGLE   : 0.0
#ELEVANGLE   : 35.0
#XPOSITION mm: -0.2433
#YPOSITION mm: -11.5485
#ZPOSITION mm: 10.0000
##OXINSTPT   : 4
##OXINSTSTROB: 43.58
##OXINSTNDET : 1
##OXINSTELEMS: 6,26,25,14,24,23,29,16
##OXINSTLABEL: 6, 0.277, C
##OXINSTLABEL: 26, 6.404, Fe
##OXINSTLABEL: 26, 7.058, Fe
##OXINSTLABEL: 26, 0.703, Fe
##OXINSTLABEL: 26, 0.615, Fe
##OXINSTLABEL: 25, 5.899, Mn
##OXINSTLABEL: 25, 6.490, Mn
##OXINSTLABEL: 25, 0.636, Mn
##OXINSTLABEL: 25, 0.556, Mn
##OXINSTLABEL: 14, 1.740, Si
##OXINSTLABEL: 24, 5.415, Cr
##OXINSTLABEL: 24, 5.947, Cr
##OXINSTLABEL: 24, 0.573, Cr
##OXINSTLABEL: 24, 0.500, Cr
##OXINSTLABEL: 23, 4.952, V
##OXINSTLABEL: 23, 5.427, V
##OXINSTLABEL: 23, 0.511, V
##OXINSTLABEL: 23, 0.446, V
##OXINSTLABEL: 29, 8.048, Cu
##OXINSTLABEL: 29, 8.905, Cu
##OXINSTLABEL: 29, 0.930, Cu
##OXINSTLABEL: 29, 0.832, Cu
##OXINSTLABEL: 29, 0.811, Cu
##OXINSTLABEL: 16, 2.308, S
##OXINSTLABEL: 16, 2.464, S
#SPECTRUM    : Spectral Data Starts Here
-0.20000, 0.0
-0.18000, 0.0
-0.16000, 0.0
-0.14000, 0.0
-0.12000, 0.0
-0.10000, 0.0
-0.08000, 0.0
-0.06000, 1.0
-0.04000, 45.0
-0.02000, 371.0
0.00000, 1096.0
0.02000, 1629.0
0.04000, 1729.0
0.06000, 922.0
0.08000, 298.0
0.10000, 160.0
0.12000, 132.0
0.14000, 106.0
0.16000, 145.0
0.18000, 158.0
0.20000, 176.0
0.22000, 243.0
0.24000, 486.0
0.26000, 939.0
0.28000, 1045.0
0.30000, 628.0
0.32000, 231.0
0.34000, 169.0
0.36000, 187.0
0.38000, 267.0
0.40000, 267.0
0.42000, 296.0
0.44000, 327.0
0.46000, 415.0
0.48000, 495.0
0.50000, 714.0
0.52000, 903.0
0.54000, 943.0
0.56000, 1045.0
0.58000, 1932.0
0.60000, 3330.0
0.62000, 4097.0
0.64000, 3486.0
0.66000, 3975.0
0.68000, 6891.0
0.70000, 9821.0
0.72000, 8549.0
0.74000, 4255.0
0.76000, 1467.0
0.78000, 504.0
0.80000, 281.0
0.82000, 214.0
0.84000, 204.0
0.86000, 203.0
0.88000, 190.0
0.90000, 180.0
0.92000, 232.0
0.94000, 208.0
0.96000, 199.0
0.98000, 217.0
1.00000, 235.0
1.02000, 248.0
1.04000, 221.0
1.06000, 240.0
1.08000, 227.0
1.10000, 243.0
1.12000, 247.0
1.14000, 257.0
1.16000, 252.0
1.18000, 281.0
1.20000, 260.0
1.22000, 282.0
1.24000, 302.0
1.26000, 292.0
1.28000, 348.0
1.30000, 305.0
1.32000, 293.0
1.34000, 302.0
1.36000, 323.0
1.38000, 327.0
1.40000, 330.0
1.42000, 344.0
1.44000, 341.0
1.46000, 369.0
1.48000, 347.0
1.50000, 350.0
1.52000, 347.0
1.54000, 351.0
1.56000, 322.0
1.58000, 331.0
1.60000, 329.0
1.62000, 355.0
1.64000, 330.0
1.66000, 366.0
1.68000, 363.0
1.70000, 401.0
1.72000, 471.0
1.74000, 460.0
1.76000, 486.0
1.78000, 427.0
1.80000, 402.0
1.82000, 384.0
1.84000, 347.0
1.86000, 356.0
1.88000, 361.0
1.90000, 367.0
1.92000, 388.0
1.94000, 352.0
1.96000, 400.0
1.98000, 382.0
2.00000, 368.0
2.02000, 376.0
2.04000, 372.0
2.06000, 377.0
2.08000, 409.0
2.10000, 383.0
2.12000, 372.0
2.14000, 361.0
2.16000, 386.0
2.18000, 320.0
2.20000, 383.0
2.22000, 379.0
2.24000, 408.0
2.26000, 422.0
2.28000, 433.0
2.30000, 429.0
2.32000, 440.0
2.34000, 424.0
2.36000, 418.0
2.38000, 381.0
2.40000, 406.0
2.42000, 401.0
2.44000, 406.0
2.46000, 402.0
2.48000, 410.0
2.50000, 400.0
2.52000, 360.0
2.54000, 388.0
2.56000, 404.0
2.58000, 401.0
2.60000, 401.0
2.62000, 378.0
2.64000, 348.0
2.66000, 383.0
2.68000, 398.0
2.70000, 387.0
2.72000, 380.0
2.74000, 354.0
2.76000, 373.0
2.78000, 368.0
2.80000, 368.0
2.82000, 384.0
2.84000, 428.0
2.86000, 396.0
2.88000, 361.0
2.90000, 357.0
2.92000, 366.0
2.94000, 367.0
2.96000, 375.0
2.98000, 391.0
3.00000, 388.0
3.02000, 364.0
3.04000, 365.0
3.06000, 353.0
3.08000, 350.0
3.10000, 349.0
3.12000, 402.0
3.14000, 341.0
3.16000, 372.0
3.18000, 352.0
3.20000, 355.0
3.22000, 380.0
3.24000, 370.0
3.26000, 350.0
3.28000, 358.0
3.30000, 382.0
3.32000, 355.0
3.34000, 342.0
3.36000, 372.0
3.38000, 361.0
3.40000, 360.0
3.42000, 370.0
3.44000, 381.0
3.46000, 354.0
3.48000, 347.0
3.50000, 345.0
3.52000, 337.0
3.54000, 367.0
3.56000, 366.0
3.58000, 344.0
3.60000, 359.0
3.62000, 342.0
3.64000, 366.0
3.66000, 357.0
3.68000, 377.0
3.70000, 364.0
3.72000, 366.0
3.74000, 339.0
3.76000, 330.0
3.78000, 344.0
3.80000, 341.0
3.82000, 310.0
3.84000, 316.0
3.86000, 316.0
3.88000, 334.0
3.90000, 334.0
3.92000, 333.0
3.94000, 305.0
3.96000, 318.0
3.98000, 316.0
4.00000, 321.0
4.02000, 329.0
4.04000, 323.0
4.06000, 319.0
4.08000, 312.0
4.10000, 316.0
4.12000, 296.0
4.14000, 313.0
4.16000, 318.0
4.18000, 320.0
4.20000, 276.0
4.22000, 291.0
4.24000, 309.0
4.26000, 300.0
4.28000, 311.0
4.30000, 300.0
4.32000, 292.0
4.34000, 331.0
4.36000, 313.0
4.38000, 293.0
4.40000, 284.0
4.42000, 284.0
4.44000, 288.0
4.46000, 299.0
4.48000, 283.0
4.50000, 288.0
4.52000, 287.0
4.54000, 303.0
4.56000, 331.0
4.58000, 310.0
4.60000, 329.0
4.62000, 332.0
4.64000, 332.0
4.66000, 351.0
4.68000, 340.0
4.70000, 309.0
4.72000, 313.0
4.74000, 294.0
4.76000, 279.0
4.78000, 281.0
4.80000, 267.0
4.82000, 277.0
4.84000, 288.0
4.86000, 275.0
4.88000, 286.0
4.90000, 283.0
4.92000, 314.0
4.94000, 302.0
4.96000, 300.0
4.98000, 302.0
5.00000, 338.0
5.02000, 302.0
5.04000, 290.0
5.06000, 270.0
5.08000, 275.0
5.10000, 252.0
5.12000, 260.0
5.14000, 266.0
5.16000, 251.0
5.18000, 255.0
5.20000, 289.0
5.22000, 267.0
5.24000, 256.0
5.26000, 281.0
5.28000, 289.0
5.30000, 267.0
5.32000, 255.0
5.34000, 301.0
5.36000, 295.0
5.38000, 313.0
5.40000, 346.0
5.42000, 340.0
5.44000, 317.0
5.46000, 300.0
5.48000, 283.0
5.50000, 290.0
5.52000, 258.0
5.54000, 235.0
5.56000, 273.0
5.58000, 235.0
5.60000, 261.0
5.62000, 235.0
5.64000, 239.0
5.66000, 232.0
5.68000, 241.0
5.70000, 244.0
5.72000, 252.0
5.74000, 240.0
5.76000, 242.0
5.78000, 255.0
5.80000, 310.0
5.82000, 340.0
5.84000, 427.0
5.86000, 524.0
5.88000, 532.0
5.90000, 527.0
5.92000, 510.0
5.94000, 449.0
5.96000, 407.0
5.98000, 358.0
6.00000, 291.0
6.02000, 255.0
6.04000, 229.0
6.06000, 249.0
6.08000, 243.0
6.10000, 232.0
6.12000, 247.0
6.14000, 270.0
6.16000, 260.0
6.18000, 269.0
6.20000, 320.0
6.22000, 375.0
6.24000, 608.0
6.26000, 1132.0
6.28000, 2267.0
6.30000, 4272.0
6.32000, 7286.0
6.34000, 11077.0
6.36000, 15094.0
6.38000, 18242.0
6.40000, 19272.0
6.42000, 18235.0
6.44000, 15033.0
6.46000, 11243.0
6.48000, 7283.0
6.50000, 4176.0
6.52000, 2289.0
6.54000, 1132.0
6.56000, 633.0
6.58000, 391.0
6.60000, 257.0
6.62000, 243.0
6.64000, 221.0
6.66000, 241.0
6.68000, 224.0
6.70000, 212.0
6.72000, 207.0
6.74000, 229.0
6.76000, 217.0
6.78000, 223.0
6.80000, 210.0
6.82000, 214.0
6.84000, 218.0
6.86000, 263.0
6.88000, 269.0
6.90000, 370.0
6.92000, 431.0
6.94000, 639.0
6.96000, 937.0
6.98000, 1394.0
7.00000, 1842.0
7.02000, 2317.0
7.04000, 2642.0
7.06000, 2685.0
7.08000, 2509.0
7.10000, 2029.0
7.12000, 1557.0
7.14000, 1006.0
7.16000, 637.0
7.18000, 402.0
7.20000, 234.0
7.22000, 161.0
7.24000, 145.0
7.26000, 117.0
7.28000, 91.0
7.30000, 106.0
7.32000, 113.0
7.34000, 104.0
7.36000, 115.0
7.38000, 105.0
7.40000, 111.0
7.42000, 113.0
7.44000, 118.0
7.46000, 108.0
7.48000, 123.0
7.50000, 116.0
7.52000, 121.0
7.54000, 127.0
7.56000, 97.0
7.58000, 106.0
7.60000, 103.0
7.62000, 100.0
7.64000, 103.0
7.66000, 101.0
7.68000, 108.0
7.70000, 108.0
7.72000, 95.0
7.74000, 115.0
7.76000, 121.0
7.78000, 97.0
7.80000, 108.0
7.82000, 118.0
7.84000, 110.0
7.86000, 84.0
7.88000, 109.0
7.90000, 115.0
7.92000, 104.0
7.94000, 116.0
7.96000, 119.0
7.98000, 107.0
8.00000, 115.0
8.02000, 126.0
8.04000, 117.0
8.06000, 130.0
8.08000, 129.0
8.10000, 109.0
8.12000, 122.0
8.14000, 101.0
8.16000, 99.0
8.18000, 99.0
8.20000, 107.0
8.22000, 97.0
8.24000, 102.0
8.26000, 95.0
8.28000, 107.0
8.30000, 100.0
8.32000, 98.0
8.34000, 111.0
8.36000, 96.0
8.38000, 106.0
8.40000, 92.0
8.42000, 108.0
8.44000, 96.0
8.46000, 101.0
8.48000, 109.0
8.50000, 96.0
8.52000, 102.0
8.54000, 102.0
8.56000, 103.0
8.58000, 95.0
8.60000, 95.0
8.62000, 92.0
8.64000, 100.0
8.66000, 98.0
8.68000, 103.0
8.70000, 98.0
8.72000, 96.0
8.74000, 101.0
8.76000, 85.0
8.78000, 89.0
8.80000, 90.0
8.82000, 99.0
8.84000, 105.0
8.86000, 85.0
8.88000, 108.0
8.90000, 101.0
8.92000, 92.0
8.94000, 94.0
8.96000, 89.0
8.98000, 90.0
9.00000, 86.0
9.02000, 97.0
9.04000, 94.0
9.06000, 102.0
9.08000, 93.0
9.10000, 80.0
9.12000, 96.0
9.14000, 86.0
9.16000, 114.0
9.18000, 87.0
9.20000, 83.0
9.22000, 93.0
9.24000, 86.0
9.26000, 87.0
9.28000, 90.0
9.30000, 85.0
9.32000, 90.0
9.34000, 95.0
9.36000, 82.0
9.38000, 73.0
9.40000, 86.0
9.42000, 92.0
9.44000, 87.0
9.46000, 101.0
9.48000, 83.0
9.50000, 89.0
9.52000, 89.0
9.54000, 92.0
9.56000, 84.0
9.58000, 72.0
9.60000, 76.0
9.62000, 89.0
9.64000, 100.0
9.66000, 83.0
9.68000, 91.0
9.70000, 87.0
9.72000, 80.0
9.74000, 78.0
9.76000, 87.0
9.78000, 101.0
9.80000, 80.0
9.82000, 70.0
9.84000, 87.0
9.86000, 86.0
9.88000, 74.0
9.90000, 80.0
9.92000, 67.0
9.94000, 76.0
9.96000, 79.0
9.98000, 88.0
10.00000, 92.0
10.02000, 81.0
10.04000, 80.0
10.06000, 80.0
10.08000, 79.0
10.10000, 79.0
10.12000, 79.0
10.14000, 69.0
10.16000, 93.0
10.18000, 88.0
10.20000, 70.0
10.22000, 75.0
10.24000, 72.0
10.26000, 86.0
10.28000, 64.0
10.30000, 89.0
10.32000, 70.0
10.34000, 77.0
10.36000, 79.0
10.38000, 62.0
10.40000, 90.0
10.42000, 87.0
10.44000, 68.0
10.46000, 76.0
10.48000, 75.0
10.50000, 65.0
10.52000, 86.0
10.54000, 67.0
10.56000, 66.0
10.58000, 74.0
10.60000, 71.0
10.62000, 70.0
10.64000, 65.0
10.66000, 69.0
10.68000, 76.0
10.70000, 64.0
10.72000, 65.0
10.74000, 87.0
10.76000, 62.0
10.78000, 81.0
10.80000, 74.0
10.82000, 70.0
10.84000, 68.0
10.86000, 64.0
10.88000, 63.0
10.90000, 74.0
10.92000, 75.0
10.94000, 76.0
10.96000, 57.0
10.98000, 73.0
11.00000, 69.0
11.02000, 59.0
11.04000, 56.0
11.06000, 83.0
11.08000, 51.0
11.10000, 62.0
11.12000, 65.0
11.14000, 65.0
11.16000, 67.0
11.18000, 68.0
11.20000, 80.0
11.22000, 65.0
11.24000, 56.0
11.26000, 65.0
11.28000, 59.0
11.30000, 49.0
11.32000, 66.0
11.34000, 64.0
11.36000, 65.0
11.38000, 64.0
11.40000, 51.0
11.42000, 63.0
11.44000, 61.0
11.46000, 64.0
11.48000, 57.0
11.50000, 58.0
11.52000, 60.0
11.54000, 66.0
11.56000, 47.0
11.58000, 65.0
11.60000, 73.0
11.62000, 50.0
11.64000, 55.0
11.66000, 54.0
11.68000, 65.0
11.70000, 55.0
11.72000, 55.0
11.74000, 66.0
11.76000, 46.0
11.78000, 56.0
11.80000, 57.0
11.82000, 57.0
11.84000, 51.0
11.86000, 59.0
11.88000, 51.0
11.90000, 59.0
11.92000, 66.0
11.94000, 57.0
11.96000, 52.0
11.98000, 47.0
12.00000, 54.0
12.02000, 53.0
12.04000, 61.0
12.06000, 54.0
12.08000, 36.0
12.10000, 63.0
12.12000, 47.0
12.14000, 45.0
12.16000, 38.0
12.18000, 49.0
12.20000, 58.0
12.22000, 59.0
12.24000, 57.0
12.26000, 46.0
12.28000, 58.0
12.30000, 53.0
12.32000, 53.0
12.34000, 40.0
12.36000, 56.0
12.38000, 53.0
12.40000, 53.0
12.42000, 46.0
12.44000, 46.0
12.46000, 53.0
12.48000, 57.0
12.50000, 39.0
12.52000, 45.0
12.54000, 50.0
12.56000, 48.0
12.58000, 40.0
12.60000, 50.0
12.62000, 50.0
12.64000, 55.0
12.66000, 59.0
12.68000, 47.0
12.70000, 53.0
12.72000, 75.0
12.74000, 56.0
12.76000, 57.0
12.78000, 71.0
12.80000, 77.0
12.82000, 84.0
12.84000, 86.0
12.86000, 63.0
12.88000, 62.0
12.90000, 57.0
12.92000, 66.0
12.94000, 43.0
12.96000, 46.0
12.98000, 57.0
13.00000, 43.0
13.02000, 32.0
13.04000, 48.0
13.06000, 48.0
13.08000, 49.0
13.10000, 38.0
13.12000, 35.0
13.14000, 41.0
13.16000, 47.0
13.18000, 41.0
13.20000, 52.0
13.22000, 34.0
13.24000, 40.0
13.26000, 44.0
13.28000, 43.0
13.30000, 36.0
13.32000, 42.0
13.34000, 37.0
13.36000, 29.0
13.38000, 49.0
13.40000, 55.0
13.42000, 58.0
13.44000, 42.0
13.46000, 46.0
13.48000, 41.0
13.50000, 37.0
13.52000, 50.0
13.54000, 47.0
13.56000, 36.0
13.58000, 37.0
13.60000, 40.0
13.62000, 40.0
13.64000, 49.0
13.66000, 36.0
13.68000, 26.0
13.70000, 27.0
13.72000, 42.0
13.74000, 40.0
13.76000, 43.0
13.78000, 35.0
13.80000, 32.0
13.82000, 31.0
13.84000, 22.0
13.86000, 27.0
13.88000, 31.0
13.90000, 23.0
13.92000, 31.0
13.94000, 25.0
13.96000, 36.0
13.98000, 35.0
14.00000, 35.0
14.02000, 26.0
14.04000, 45.0
14.06000, 30.0
14.08000, 36.0
14.10000, 30.0
14.12000, 39.0
14.14000, 30.0
14.16000, 38.0
14.18000, 23.0
14.20000, 39.0
14.22000, 32.0
14.24000, 22.0
14.26000, 31.0
14.28000, 28.0
14.30000, 33.0
14.32000, 25.0
14.34000, 26.0
14.36000, 23.0
14.38000, 27.0
14.40000, 29.0
14.42000, 25.0
14.44000, 31.0
14.46000, 32.0
14.48000, 32.0
14.50000, 37.0
14.52000, 32.0
14.54000, 28.0
14.56000, 28.0
14.58000, 23.0
14.60000, 34.0
14.62000, 36.0
14.64000, 31.0
14.66000, 23.0
14.68000, 27.0
14.70000, 22.0
14.72000, 23.0
14.74000, 22.0
14.76000, 19.0
14.78000, 29.0
14.80000, 30.0
14.82000, 24.0
14.84000, 29.0
14.86000, 21.0
14.88000, 36.0
14.90000, 26.0
14.92000, 28.0
14.94000, 23.0
14.96000, 23.0
14.98000, 30.0
15.00000, 17.0
15.02000, 21.0
15.04000, 27.0
15.06000, 23.0
15.08000, 24.0
15.10000, 19.0
15.12000, 23.0
15.14000, 27.0
15.16000, 21.0
15.18000, 27.0
15.20000, 20.0
15.22000, 33.0
15.24000, 29.0
15.26000, 19.0
15.28000, 15.0
15.30000, 17.0
15.32000, 17.0
15.34000, 24.0
15.36000, 19.0
15.38000, 17.0
15.40000, 30.0
15.42000, 17.0
15.44000, 17.0
15.46000, 24.0
15.48000, 17.0
15.50000, 34.0
15.52000, 25.0
15.54000, 23.0
15.56000, 22.0
15.58000, 16.0
15.60000, 19.0
15.62000, 20.0
15.64000, 23.0
15.66000, 19.0
15.68000, 27.0
15.70000, 25.0
15.72000, 23.0
15.74000, 24.0
15.76000, 17.0
15.78000, 9.0
15.80000, 18.0
15.82000, 24.0
15.84000, 10.0
15.86000, 15.0
15.88000, 20.0
15.90000, 11.0
15.92000, 14.0
15.94000, 17.0
15.96000, 19.0
15.98000, 23.0
16.00000, 23.0
16.02000, 14.0
16.04000, 16.0
16.06000, 15.0
16.08000, 13.0
16.10000, 13.0
16.12000, 24.0
16.14000, 16.0
16.16000, 20.0
16.18000, 23.0
16.20000, 14.0
16.22000, 16.0
16.24000, 22.0
16.26000, 22.0
16.28000, 10.0
16.30000, 17.0
16.32000, 17.0
16.34000, 16.0
16.36000, 12.0
16.38000, 15.0
16.40000, 18.0
16.42000, 20.0
16.44000, 12.0
16.46000, 11.0
16.48000, 10.0
16.50000, 13.0
16.52000, 17.0
16.54000, 9.0
16.56000, 12.0
16.58000, 11.0
16.60000, 11.0
16.62000, 12.0
16.64000, 11.0
16.66000, 13.0
16.68000, 15.0
16.70000, 11.0
16.72000, 15.0
16.74000, 13.0
16.76000, 15.0
16.78000, 11.0
16.80000, 9.0
16.82000, 12.0
16.84000, 13.0
16.86000, 9.0
16.88000, 9.0
16.90000, 8.0
16.92000, 17.0
16.94000, 11.0
16.96000, 20.0
16.98000, 5.0
17.00000, 9.0
17.02000, 8.0
17.04000, 7.0
17.06000, 9.0
17.08000, 10.0
17.10000, 9.0
17.12000, 13.0
17.14000, 10.0
17.16000, 12.0
17.18000, 14.0
17.20000, 7.0
17.22000, 5.0
17.24000, 9.0
17.26000, 7.0
17.28000, 9.0
17.30000, 9.0
17.32000, 11.0
17.34000, 14.0
17.36000, 8.0
17.38000, 11.0
17.40000, 11.0
17.42000, 14.0
17.44000, 5.0
17.46000, 8.0
17.48000, 10.0
17.50000, 10.0
17.52000, 10.0
17.54000, 8.0
17.56000, 10.0
17.58000, 9.0
17.60000, 5.0
17.62000, 8.0
17.64000, 5.0
17.66000, 7.0
17.68000, 6.0
17.70000, 7.0
17.72000, 7.0
17.74000, 6.0
17.76000, 4.0
17.78000, 6.0
17.80000, 7.0
17.82000, 9.0
17.84000, 8.0
17.86000, 7.0
17.88000, 11.0
17.90000, 8.0
17.92000, 7.0
17.94000, 8.0
17.96000, 6.0
17.98000, 3.0
18.00000, 11.0
18.02000, 4.0
18.04000, 6.0
18.06000, 8.0
18.08000, 5.0
18.10000, 5.0
18.12000, 9.0
18.14000, 9.0
18.16000, 1.0
18.18000, 7.0
18.20000, 11.0
18.22000, 5.0
18.24000, 4.0
18.26000, 9.0
18.28000, 7.0
18.30000, 7.0
18.32000, 9.0
18.34000, 1.0
18.36000, 8.0
18.38000, 3.0
18.40000, 5.0
18.42000, 1.0
18.44000, 5.0
18.46000, 6.0
18.48000, 7.0
18.50000, 4.0
18.52000, 6.0
18.54000, 5.0
18.56000, 6.0
18.58000, 3.0
18.60000, 4.0
18.62000, 4.0
18.64000, 2.0
18.66000, 4.0
18.68000, 1.0
18.70000, 5.0
18.72000, 4.0
18.74000, 2.0
18.76000, 3.0
18.78000, 3.0
18.80000, 2.0
18.82000, 1.0
18.84000, 2.0
18.86000, 2.0
18.88000, 5.0
18.90000, 4.0
18.92000, 4.0
18.94000, 1.0
18.96000, 6.0
18.98000, 6.0
19.00000, 2.0
19.02000, 0.0
19.04000, 1.0
19.06000, 3.0
19.08000, 5.0
19.10000, 3.0
19.12000, 6.0
19.14000, 0.0
19.16000, 0.0
19.18000, 2.0
19.20000, 0.0
19.22000, 0.0
19.24000, 3.0
19.26000, 0.0
19.28000, 2.0
19.30000, 4.0
19.32000, 1.0
19.34000, 1.0
19.36000, 2.0
19.38000, 5.0
19.40000, 4.0
19.42000, 2.0
19.44000, 0.0
19.46000, 3.0
19.48000, 3.0
19.50000, 2.0
19.52000, 4.0
19.54000, 2.0
19.56000, 0.0
19.58000, 0.0
19.60000, 3.0
19.62000, 2.0
19.64000, 0.0
19.66000, 2.0
19.68000, 1.0
19.70000, 0.0
19.72000, 1.0
19.74000, 0.0
19.76000, 3.0
19.78000, 1.0
19.80000, 3.0
19.82000, 1.0
19.84000, 0.0
19.86000, 0.0
19.88000, 0.0
19.90000, 1.0
19.92000, 0.0
19.94000, 0.0
19.96000, 0.0
19.98000, 0.0
20.00000, 0.0
20.02000, 1.0
20.04000, 1.0
20.06000, 0.0
20.08000, 1.0
20.10000, 0.0
20.12000, 0.0
20.14000, 0.0
20.16000, 0.0
20.18000, 0.0
20.20000, 0.0
20.22000, 0.0
20.24000, 0.0
20.26000, 1.0
20.27000, 0.0
#ENDOFDATA   :