File: SEM/010422/CL15_B Spectrum 3.txt
#FORMAT      : EMSA/MAS Spectral Data File
#VERSION     : 1.0
#TITLE       : Spectrum 3
#DATE        : 04-JAN-2022
#TIME        : 13:36
#OWNER       :
#NPOINTS     : 2048.0
#NCOLUMNS    : 1.0
#XUNITS      : keV
#YUNITS      : counts
#DATATYPE    : XY
#XPERCHAN    : 0.01
#OFFSET      : -0.2
#SIGNALTYPE  : EDS
#CHOFFSET    : 20.0
#LIVETIME    : 39.9722
#REALTIME    : 41.7641
#BEAMKV      : 20.0
#MAGCAM      : 500.0
#XTILTSTGE   : 0.0
#AZIMANGLE   : 0.0
#ELEVANGLE   : 35.0
#XPOSITION mm: -11.0050
#YPOSITION mm: 4.9090
#ZPOSITION mm: 10.0000
##OXINSTPT   : 4
##OXINSTSTROB: 43.42
##OXINSTNDET : 1
##OXINSTELEMS: 6,26,25,8,24,14,16,23
##OXINSTLABEL: 6, 0.277, C
##OXINSTLABEL: 26, 6.404, Fe
##OXINSTLABEL: 26, 7.058, Fe
##OXINSTLABEL: 26, 0.703, Fe
##OXINSTLABEL: 26, 0.615, Fe
##OXINSTLABEL: 25, 5.899, Mn
##OXINSTLABEL: 25, 6.490, Mn
##OXINSTLABEL: 25, 0.636, Mn
##OXINSTLABEL: 25, 0.556, Mn
##OXINSTLABEL: 8, 0.525, O
##OXINSTLABEL: 24, 5.415, Cr
##OXINSTLABEL: 24, 5.947, Cr
##OXINSTLABEL: 24, 0.573, Cr
##OXINSTLABEL: 24, 0.500, Cr
##OXINSTLABEL: 14, 1.740, Si
##OXINSTLABEL: 16, 2.308, S
##OXINSTLABEL: 16, 2.464, S
##OXINSTLABEL: 23, 4.952, V
##OXINSTLABEL: 23, 5.427, V
##OXINSTLABEL: 23, 0.511, V
##OXINSTLABEL: 23, 0.446, V
#SPECTRUM    : Spectral Data Starts Here
-0.20000, 0.0
-0.18000, 0.0
-0.16000, 0.0
-0.14000, 0.0
-0.12000, 0.0
-0.10000, 0.0
-0.08000, 0.0
-0.06000, 0.0
-0.04000, 46.0
-0.02000, 363.0
0.00000, 1027.0
0.02000, 1686.0
0.04000, 1791.0
0.06000, 1012.0
0.08000, 259.0
0.10000, 127.0
0.12000, 78.0
0.14000, 89.0
0.16000, 100.0
0.18000, 111.0
0.20000, 109.0
0.22000, 197.0
0.24000, 391.0
0.26000, 705.0
0.28000, 827.0
0.30000, 440.0
0.32000, 203.0
0.34000, 121.0
0.36000, 158.0
0.38000, 187.0
0.40000, 215.0
0.42000, 237.0
0.44000, 237.0
0.46000, 304.0
0.48000, 408.0
0.50000, 662.0
0.52000, 904.0
0.54000, 809.0
0.56000, 791.0
0.58000, 1380.0
0.60000, 2291.0
0.62000, 2888.0
0.64000, 2497.0
0.66000, 2710.0
0.68000, 4954.0
0.70000, 6925.0
0.72000, 6026.0
0.74000, 3080.0
0.76000, 1048.0
0.78000, 344.0
0.80000, 195.0
0.82000, 180.0
0.84000, 160.0
0.86000, 147.0
0.88000, 115.0
0.90000, 148.0
0.92000, 147.0
0.94000, 150.0
0.96000, 160.0
0.98000, 145.0
1.00000, 153.0
1.02000, 176.0
1.04000, 152.0
1.06000, 165.0
1.08000, 182.0
1.10000, 177.0
1.12000, 178.0
1.14000, 186.0
1.16000, 184.0
1.18000, 189.0
1.20000, 190.0
1.22000, 221.0
1.24000, 214.0
1.26000, 223.0
1.28000, 212.0
1.30000, 219.0
1.32000, 224.0
1.34000, 220.0
1.36000, 228.0
1.38000, 231.0
1.40000, 221.0
1.42000, 241.0
1.44000, 238.0
1.46000, 227.0
1.48000, 251.0
1.50000, 244.0
1.52000, 235.0
1.54000, 226.0
1.56000, 244.0
1.58000, 249.0
1.60000, 233.0
1.62000, 228.0
1.64000, 255.0
1.66000, 253.0
1.68000, 272.0
1.70000, 300.0
1.72000, 358.0
1.74000, 328.0
1.76000, 335.0
1.78000, 325.0
1.80000, 306.0
1.82000, 294.0
1.84000, 246.0
1.86000, 269.0
1.88000, 269.0
1.90000, 267.0
1.92000, 254.0
1.94000, 268.0
1.96000, 263.0
1.98000, 253.0
2.00000, 268.0
2.02000, 267.0
2.04000, 247.0
2.06000, 262.0
2.08000, 268.0
2.10000, 256.0
2.12000, 238.0
2.14000, 264.0
2.16000, 261.0
2.18000, 266.0
2.20000, 282.0
2.22000, 278.0
2.24000, 278.0
2.26000, 297.0
2.28000, 319.0
2.30000, 349.0
2.32000, 364.0
2.34000, 299.0
2.36000, 298.0
2.38000, 276.0
2.40000, 280.0
2.42000, 261.0
2.44000, 287.0
2.46000, 274.0
2.48000, 285.0
2.50000, 255.0
2.52000, 299.0
2.54000, 282.0
2.56000, 257.0
2.58000, 288.0
2.60000, 266.0
2.62000, 271.0
2.64000, 276.0
2.66000, 267.0
2.68000, 262.0
2.70000, 274.0
2.72000, 261.0
2.74000, 274.0
2.76000, 252.0
2.78000, 247.0
2.80000, 260.0
2.82000, 238.0
2.84000, 260.0
2.86000, 243.0
2.88000, 253.0
2.90000, 238.0
2.92000, 248.0
2.94000, 254.0
2.96000, 269.0
2.98000, 259.0
3.00000, 252.0
3.02000, 256.0
3.04000, 246.0
3.06000, 260.0
3.08000, 242.0
3.10000, 278.0
3.12000, 257.0
3.14000, 271.0
3.16000, 264.0
3.18000, 241.0
3.20000, 269.0
3.22000, 267.0
3.24000, 221.0
3.26000, 240.0
3.28000, 210.0
3.30000, 250.0
3.32000, 238.0
3.34000, 254.0
3.36000, 242.0
3.38000, 250.0
3.40000, 241.0
3.42000, 226.0
3.44000, 250.0
3.46000, 237.0
3.48000, 253.0
3.50000, 233.0
3.52000, 225.0
3.54000, 234.0
3.56000, 245.0
3.58000, 230.0
3.60000, 233.0
3.62000, 212.0
3.64000, 233.0
3.66000, 252.0
3.68000, 261.0
3.70000, 214.0
3.72000, 234.0
3.74000, 211.0
3.76000, 203.0
3.78000, 226.0
3.80000, 213.0
3.82000, 197.0
3.84000, 215.0
3.86000, 192.0
3.88000, 197.0
3.90000, 212.0
3.92000, 217.0
3.94000, 204.0
3.96000, 213.0
3.98000, 224.0
4.00000, 230.0
4.02000, 236.0
4.04000, 226.0
4.06000, 210.0
4.08000, 242.0
4.10000, 218.0
4.12000, 196.0
4.14000, 221.0
4.16000, 213.0
4.18000, 217.0
4.20000, 220.0
4.22000, 215.0
4.24000, 209.0
4.26000, 210.0
4.28000, 183.0
4.30000, 202.0
4.32000, 215.0
4.34000, 231.0
4.36000, 187.0
4.38000, 185.0
4.40000, 205.0
4.42000, 190.0
4.44000, 196.0
4.46000, 202.0
4.48000, 205.0
4.50000, 194.0
4.52000, 204.0
4.54000, 195.0
4.56000, 185.0
4.58000, 191.0
4.60000, 216.0
4.62000, 212.0
4.64000, 252.0
4.66000, 244.0
4.68000, 227.0
4.70000, 213.0
4.72000, 213.0
4.74000, 204.0
4.76000, 202.0
4.78000, 186.0
4.80000, 195.0
4.82000, 162.0
4.84000, 192.0
4.86000, 194.0
4.88000, 184.0
4.90000, 194.0
4.92000, 235.0
4.94000, 225.0
4.96000, 221.0
4.98000, 202.0
5.00000, 196.0
5.02000, 174.0
5.04000, 178.0
5.06000, 185.0
5.08000, 189.0
5.10000, 165.0
5.12000, 183.0
5.14000, 177.0
5.16000, 171.0
5.18000, 168.0
5.20000, 163.0
5.22000, 178.0
5.24000, 175.0
5.26000, 178.0
5.28000, 159.0
5.30000, 185.0
5.32000, 198.0
5.34000, 195.0
5.36000, 212.0
5.38000, 219.0
5.40000, 215.0
5.42000, 225.0
5.44000, 228.0
5.46000, 204.0
5.48000, 198.0
5.50000, 174.0
5.52000, 162.0
5.54000, 169.0
5.56000, 169.0
5.58000, 169.0
5.60000, 164.0
5.62000, 159.0
5.64000, 164.0
5.66000, 189.0
5.68000, 166.0
5.70000, 151.0
5.72000, 157.0
5.74000, 156.0
5.76000, 172.0
5.78000, 165.0
5.80000, 200.0
5.82000, 241.0
5.84000, 299.0
5.86000, 357.0
5.88000, 364.0
5.90000, 376.0
5.92000, 386.0
5.94000, 319.0
5.96000, 274.0
5.98000, 239.0
6.00000, 207.0
6.02000, 205.0
6.04000, 177.0
6.06000, 156.0
6.08000, 160.0
6.10000, 169.0
6.12000, 146.0
6.14000, 146.0
6.16000, 173.0
6.18000, 168.0
6.20000, 206.0
6.22000, 262.0
6.24000, 383.0
6.26000, 759.0
6.28000, 1480.0
6.30000, 2813.0
6.32000, 4778.0
6.34000, 7323.0
6.36000, 9974.0
6.38000, 12223.0
6.40000, 12989.0
6.42000, 12099.0
6.44000, 10119.0
6.46000, 7219.0
6.48000, 4856.0
6.50000, 2865.0
6.52000, 1422.0
6.54000, 778.0
6.56000, 387.0
6.58000, 236.0
6.60000, 186.0
6.62000, 171.0
6.64000, 144.0
6.66000, 150.0
6.68000, 129.0
6.70000, 149.0
6.72000, 159.0
6.74000, 135.0
6.76000, 134.0
6.78000, 143.0
6.80000, 138.0
6.82000, 149.0
6.84000, 149.0
6.86000, 160.0
6.88000, 168.0
6.90000, 245.0
6.92000, 300.0
6.94000, 438.0
6.96000, 619.0
6.98000, 908.0
7.00000, 1248.0
7.02000, 1524.0
7.04000, 1717.0
7.06000, 1704.0
7.08000, 1610.0
7.10000, 1312.0
7.12000, 1003.0
7.14000, 676.0
7.16000, 428.0
7.18000, 279.0
7.20000, 163.0
7.22000, 104.0
7.24000, 107.0
7.26000, 80.0
7.28000, 75.0
7.30000, 83.0
7.32000, 87.0
7.34000, 77.0
7.36000, 79.0
7.38000, 73.0
7.40000, 66.0
7.42000, 70.0
7.44000, 92.0
7.46000, 75.0
7.48000, 76.0
7.50000, 103.0
7.52000, 71.0
7.54000, 84.0
7.56000, 75.0
7.58000, 70.0
7.60000, 59.0
7.62000, 71.0
7.64000, 80.0
7.66000, 68.0
7.68000, 70.0
7.70000, 66.0
7.72000, 74.0
7.74000, 65.0
7.76000, 69.0
7.78000, 68.0
7.80000, 82.0
7.82000, 69.0
7.84000, 74.0
7.86000, 74.0
7.88000, 62.0
7.90000, 72.0
7.92000, 74.0
7.94000, 79.0
7.96000, 69.0
7.98000, 87.0
8.00000, 87.0
8.02000, 94.0
8.04000, 78.0
8.06000, 75.0
8.08000, 89.0
8.10000, 85.0
8.12000, 76.0
8.14000, 61.0
8.16000, 65.0
8.18000, 69.0
8.20000, 71.0
8.22000, 75.0
8.24000, 62.0
8.26000, 60.0
8.28000, 69.0
8.30000, 61.0
8.32000, 69.0
8.34000, 62.0
8.36000, 70.0
8.38000, 68.0
8.40000, 68.0
8.42000, 71.0
8.44000, 83.0
8.46000, 68.0
8.48000, 78.0
8.50000, 72.0
8.52000, 73.0
8.54000, 63.0
8.56000, 72.0
8.58000, 64.0
8.60000, 63.0
8.62000, 70.0
8.64000, 75.0
8.66000, 67.0
8.68000, 59.0
8.70000, 82.0
8.72000, 67.0
8.74000, 61.0
8.76000, 68.0
8.78000, 59.0
8.80000, 60.0
8.82000, 62.0
8.84000, 51.0
8.86000, 66.0
8.88000, 66.0
8.90000, 72.0
8.92000, 48.0
8.94000, 64.0
8.96000, 69.0
8.98000, 75.0
9.00000, 60.0
9.02000, 84.0
9.04000, 63.0
9.06000, 68.0
9.08000, 57.0
9.10000, 54.0
9.12000, 66.0
9.14000, 66.0
9.16000, 63.0
9.18000, 49.0
9.20000, 61.0
9.22000, 62.0
9.24000, 69.0
9.26000, 61.0
9.28000, 44.0
9.30000, 64.0
9.32000, 57.0
9.34000, 72.0
9.36000, 58.0
9.38000, 63.0
9.40000, 62.0
9.42000, 53.0
9.44000, 75.0
9.46000, 56.0
9.48000, 54.0
9.50000, 57.0
9.52000, 45.0
9.54000, 68.0
9.56000, 73.0
9.58000, 68.0
9.60000, 61.0
9.62000, 62.0
9.64000, 66.0
9.66000, 59.0
9.68000, 41.0
9.70000, 62.0
9.72000, 64.0
9.74000, 52.0
9.76000, 68.0
9.78000, 41.0
9.80000, 49.0
9.82000, 61.0
9.84000, 50.0
9.86000, 48.0
9.88000, 64.0
9.90000, 41.0
9.92000, 52.0
9.94000, 46.0
9.96000, 57.0
9.98000, 40.0
10.00000, 48.0
10.02000, 62.0
10.04000, 50.0
10.06000, 50.0
10.08000, 53.0
10.10000, 46.0
10.12000, 48.0
10.14000, 43.0
10.16000, 46.0
10.18000, 40.0
10.20000, 42.0
10.22000, 44.0
10.24000, 51.0
10.26000, 46.0
10.28000, 53.0
10.30000, 51.0
10.32000, 43.0
10.34000, 47.0
10.36000, 44.0
10.38000, 53.0
10.40000, 38.0
10.42000, 44.0
10.44000, 42.0
10.46000, 51.0
10.48000, 58.0
10.50000, 55.0
10.52000, 45.0
10.54000, 52.0
10.56000, 65.0
10.58000, 47.0
10.60000, 40.0
10.62000, 45.0
10.64000, 46.0
10.66000, 42.0
10.68000, 36.0
10.70000, 56.0
10.72000, 50.0
10.74000, 49.0
10.76000, 59.0
10.78000, 48.0
10.80000, 56.0
10.82000, 51.0
10.84000, 47.0
10.86000, 44.0
10.88000, 39.0
10.90000, 51.0
10.92000, 40.0
10.94000, 43.0
10.96000, 41.0
10.98000, 41.0
11.00000, 38.0
11.02000, 40.0
11.04000, 44.0
11.06000, 45.0
11.08000, 45.0
11.10000, 41.0
11.12000, 39.0
11.14000, 44.0
11.16000, 45.0
11.18000, 48.0
11.20000, 39.0
11.22000, 40.0
11.24000, 42.0
11.26000, 44.0
11.28000, 37.0
11.30000, 43.0
11.32000, 39.0
11.34000, 34.0
11.36000, 47.0
11.38000, 50.0
11.40000, 48.0
11.42000, 37.0
11.44000, 45.0
11.46000, 48.0
11.48000, 39.0
11.50000, 45.0
11.52000, 50.0
11.54000, 50.0
11.56000, 37.0
11.58000, 40.0
11.60000, 45.0
11.62000, 45.0
11.64000, 32.0
11.66000, 31.0
11.68000, 50.0
11.70000, 38.0
11.72000, 31.0
11.74000, 41.0
11.76000, 28.0
11.78000, 41.0
11.80000, 37.0
11.82000, 34.0
11.84000, 34.0
11.86000, 36.0
11.88000, 37.0
11.90000, 33.0
11.92000, 29.0
11.94000, 41.0
11.96000, 40.0
11.98000, 38.0
12.00000, 34.0
12.02000, 33.0
12.04000, 31.0
12.06000, 31.0
12.08000, 38.0
12.10000, 37.0
12.12000, 36.0
12.14000, 34.0
12.16000, 37.0
12.18000, 31.0
12.20000, 38.0
12.22000, 38.0
12.24000, 31.0
12.26000, 40.0
12.28000, 32.0
12.30000, 36.0
12.32000, 31.0
12.34000, 39.0
12.36000, 31.0
12.38000, 32.0
12.40000, 32.0
12.42000, 41.0
12.44000, 29.0
12.46000, 32.0
12.48000, 36.0
12.50000, 35.0
12.52000, 31.0
12.54000, 39.0
12.56000, 27.0
12.58000, 30.0
12.60000, 27.0
12.62000, 27.0
12.64000, 26.0
12.66000, 35.0
12.68000, 36.0
12.70000, 33.0
12.72000, 41.0
12.74000, 44.0
12.76000, 37.0
12.78000, 35.0
12.80000, 47.0
12.82000, 45.0
12.84000, 41.0
12.86000, 40.0
12.88000, 33.0
12.90000, 22.0
12.92000, 38.0
12.94000, 29.0
12.96000, 29.0
12.98000, 26.0
13.00000, 30.0
13.02000, 24.0
13.04000, 26.0
13.06000, 20.0
13.08000, 31.0
13.10000, 24.0
13.12000, 24.0
13.14000, 26.0
13.16000, 30.0
13.18000, 39.0
13.20000, 22.0
13.22000, 31.0
13.24000, 16.0
13.26000, 33.0
13.28000, 35.0
13.30000, 23.0
13.32000, 22.0
13.34000, 33.0
13.36000, 28.0
13.38000, 25.0
13.40000, 29.0
13.42000, 28.0
13.44000, 29.0
13.46000, 35.0
13.48000, 25.0
13.50000, 29.0
13.52000, 30.0
13.54000, 17.0
13.56000, 30.0
13.58000, 16.0
13.60000, 30.0
13.62000, 18.0
13.64000, 24.0
13.66000, 28.0
13.68000, 23.0
13.70000, 26.0
13.72000, 23.0
13.74000, 19.0
13.76000, 20.0
13.78000, 24.0
13.80000, 29.0
13.82000, 11.0
13.84000, 17.0
13.86000, 29.0
13.88000, 14.0
13.90000, 24.0
13.92000, 21.0
13.94000, 30.0
13.96000, 20.0
13.98000, 14.0
14.00000, 19.0
14.02000, 17.0
14.04000, 19.0
14.06000, 22.0
14.08000, 27.0
14.10000, 18.0
14.12000, 15.0
14.14000, 20.0
14.16000, 21.0
14.18000, 17.0
14.20000, 22.0
14.22000, 26.0
14.24000, 17.0
14.26000, 21.0
14.28000, 9.0
14.30000, 20.0
14.32000, 20.0
14.34000, 25.0
14.36000, 23.0
14.38000, 15.0
14.40000, 17.0
14.42000, 20.0
14.44000, 16.0
14.46000, 18.0
14.48000, 16.0
14.50000, 23.0
14.52000, 33.0
14.54000, 19.0
14.56000, 23.0
14.58000, 21.0
14.60000, 11.0
14.62000, 24.0
14.64000, 21.0
14.66000, 17.0
14.68000, 16.0
14.70000, 20.0
14.72000, 11.0
14.74000, 18.0
14.76000, 10.0
14.78000, 15.0
14.80000, 18.0
14.82000, 12.0
14.84000, 12.0
14.86000, 20.0
14.88000, 13.0
14.90000, 27.0
14.92000, 16.0
14.94000, 20.0
14.96000, 16.0
14.98000, 12.0
15.00000, 10.0
15.02000, 20.0
15.04000, 22.0
15.06000, 12.0
15.08000, 14.0
15.10000, 12.0
15.12000, 13.0
15.14000, 16.0
15.16000, 13.0
15.18000, 7.0
15.20000, 16.0
15.22000, 17.0
15.24000, 16.0
15.26000, 18.0
15.28000, 13.0
15.30000, 14.0
15.32000, 8.0
15.34000, 11.0
15.36000, 11.0
15.38000, 9.0
15.40000, 24.0
15.42000, 13.0
15.44000, 8.0
15.46000, 8.0
15.48000, 10.0
15.50000, 15.0
15.52000, 15.0
15.54000, 8.0
15.56000, 9.0
15.58000, 11.0
15.60000, 8.0
15.62000, 9.0
15.64000, 11.0
15.66000, 21.0
15.68000, 14.0
15.70000, 8.0
15.72000, 8.0
15.74000, 11.0
15.76000, 11.0
15.78000, 5.0
15.80000, 14.0
15.82000, 16.0
15.84000, 7.0
15.86000, 11.0
15.88000, 8.0
15.90000, 12.0
15.92000, 16.0
15.94000, 8.0
15.96000, 9.0
15.98000, 10.0
16.00000, 16.0
16.02000, 12.0
16.04000, 9.0
16.06000, 11.0
16.08000, 8.0
16.10000, 11.0
16.12000, 15.0
16.14000, 9.0
16.16000, 14.0
16.18000, 8.0
16.20000, 9.0
16.22000, 7.0
16.24000, 15.0
16.26000, 9.0
16.28000, 19.0
16.30000, 9.0
16.32000, 8.0
16.34000, 11.0
16.36000, 14.0
16.38000, 10.0
16.40000, 10.0
16.42000, 9.0
16.44000, 7.0
16.46000, 5.0
16.48000, 13.0
16.50000, 9.0
16.52000, 9.0
16.54000, 9.0
16.56000, 5.0
16.58000, 9.0
16.60000, 6.0
16.62000, 4.0
16.64000, 7.0
16.66000, 7.0
16.68000, 6.0
16.70000, 15.0
16.72000, 4.0
16.74000, 6.0
16.76000, 8.0
16.78000, 7.0
16.80000, 4.0
16.82000, 10.0
16.84000, 7.0
16.86000, 13.0
16.88000, 4.0
16.90000, 3.0
16.92000, 9.0
16.94000, 3.0
16.96000, 5.0
16.98000, 5.0
17.00000, 6.0
17.02000, 7.0
17.04000, 8.0
17.06000, 2.0
17.08000, 6.0
17.10000, 11.0
17.12000, 5.0
17.14000, 1.0
17.16000, 6.0
17.18000, 7.0
17.20000, 12.0
17.22000, 11.0
17.24000, 4.0
17.26000, 3.0
17.28000, 5.0
17.30000, 8.0
17.32000, 6.0
17.34000, 8.0
17.36000, 4.0
17.38000, 5.0
17.40000, 6.0
17.42000, 9.0
17.44000, 3.0
17.46000, 2.0
17.48000, 8.0
17.50000, 6.0
17.52000, 6.0
17.54000, 3.0
17.56000, 9.0
17.58000, 8.0
17.60000, 4.0
17.62000, 5.0
17.64000, 8.0
17.66000, 3.0
17.68000, 5.0
17.70000, 4.0
17.72000, 9.0
17.74000, 3.0
17.76000, 2.0
17.78000, 5.0
17.80000, 2.0
17.82000, 3.0
17.84000, 7.0
17.86000, 3.0
17.88000, 2.0
17.90000, 1.0
17.92000, 5.0
17.94000, 1.0
17.96000, 1.0
17.98000, 4.0
18.00000, 8.0
18.02000, 5.0
18.04000, 5.0
18.06000, 0.0
18.08000, 4.0
18.10000, 2.0
18.12000, 6.0
18.14000, 2.0
18.16000, 3.0
18.18000, 3.0
18.20000, 5.0
18.22000, 3.0
18.24000, 5.0
18.26000, 3.0
18.28000, 5.0
18.30000, 2.0
18.32000, 4.0
18.34000, 2.0
18.36000, 4.0
18.38000, 2.0
18.40000, 3.0
18.42000, 7.0
18.44000, 1.0
18.46000, 5.0
18.48000, 2.0
18.50000, 3.0
18.52000, 3.0
18.54000, 3.0
18.56000, 2.0
18.58000, 5.0
18.60000, 1.0
18.62000, 4.0
18.64000, 7.0
18.66000, 1.0
18.68000, 2.0
18.70000, 4.0
18.72000, 1.0
18.74000, 1.0
18.76000, 1.0
18.78000, 4.0
18.80000, 3.0
18.82000, 1.0
18.84000, 4.0
18.86000, 2.0
18.88000, 0.0
18.90000, 2.0
18.92000, 2.0
18.94000, 2.0
18.96000, 2.0
18.98000, 4.0
19.00000, 3.0
19.02000, 2.0
19.04000, 1.0
19.06000, 2.0
19.08000, 3.0
19.10000, 2.0
19.12000, 3.0
19.14000, 1.0
19.16000, 2.0
19.18000, 4.0
19.20000, 4.0
19.22000, 1.0
19.24000, 2.0
19.26000, 0.0
19.28000, 0.0
19.30000, 1.0
19.32000, 1.0
19.34000, 0.0
19.36000, 1.0
19.38000, 0.0
19.40000, 0.0
19.42000, 1.0
19.44000, 1.0
19.46000, 2.0
19.48000, 1.0
19.50000, 1.0
19.52000, 1.0
19.54000, 1.0
19.56000, 0.0
19.58000, 0.0
19.60000, 1.0
19.62000, 0.0
19.64000, 0.0
19.66000, 1.0
19.68000, 0.0
19.70000, 2.0
19.72000, 2.0
19.74000, 0.0
19.76000, 1.0
19.78000, 0.0
19.80000, 0.0
19.82000, 1.0
19.84000, 0.0
19.86000, 0.0
19.88000, 0.0
19.90000, 2.0
19.92000, 0.0
19.94000, 0.0
19.96000, 0.0
19.98000, 0.0
20.00000, 0.0
20.02000, 1.0
20.04000, 0.0
20.06000, 0.0
20.08000, 0.0
20.10000, 0.0
20.12000, 0.0
20.14000, 0.0
20.16000, 0.0
20.18000, 0.0
20.20000, 1.0
20.22000, 0.0
20.24000, 0.0
20.26000, 0.0
20.27000, 0.0
#ENDOFDATA   :